# WL(A)	 Flux(ergs/cm**2/s/nm)
1151.000  2.297E-11
1151.200  2.499E-11
1151.400  2.883E-11
1151.600  2.698E-11
1151.800  2.894E-11
1152.000  2.604E-11
1152.200  2.604E-11
1152.400  2.959E-11
1152.600  2.995E-11
1152.800  2.116E-11
1153.000  2.901E-11
1153.200  2.872E-11
1153.400  2.874E-11
1153.600  2.874E-11
1153.800  2.504E-11
1154.000  2.240E-11
1154.200  2.669E-11
1154.400  2.812E-11
1154.600  2.616E-11
1154.800  2.511E-11
1155.000  2.093E-11
1155.200  2.996E-11
1155.400  2.528E-11
1155.600  2.688E-11
1155.800  2.879E-11
1156.000  2.057E-11
1156.200  2.915E-11
1156.400  2.843E-11
1156.600  2.818E-11
1156.800  3.132E-11
1157.000  2.846E-11
1157.200  2.580E-11
1157.400  2.971E-11
1157.600  3.009E-11
1157.800  2.403E-11
1158.000  2.570E-11
1158.200  2.344E-11
1158.400  3.119E-11
1158.600  3.172E-11
1158.800  2.776E-11
1159.000  2.600E-11
1159.200  2.478E-11
1159.400  2.723E-11
1159.600  2.527E-11
1159.800  2.804E-11
1160.000  2.824E-11
1160.200  2.497E-11
1160.400  3.087E-11
1160.600  2.876E-11
1160.800  2.702E-11
1161.000  2.439E-11
1161.200  2.787E-11
1161.400  2.900E-11
1161.600  2.636E-11
1161.800  2.663E-11
1162.000  2.175E-11
1162.200  2.509E-11
1162.400  2.623E-11
1162.600  1.946E-11
1162.800  2.652E-11
1163.000  2.845E-11
1163.200  2.456E-11
1163.400  2.465E-11
1163.600  2.816E-11
1163.800  2.990E-11
1164.000  2.522E-11
1164.200  2.531E-11
1164.400  2.689E-11
1164.600  2.689E-11
1164.800  2.588E-11
1165.000  2.532E-11
1165.200  2.796E-11
1165.400  2.757E-11
1165.600  2.456E-11
1165.800  2.441E-11
1166.000  2.404E-11
1166.200  2.343E-11
1166.400  2.547E-11
1166.600  2.813E-11
1166.800  2.797E-11
1167.000  2.738E-11
1167.200  2.854E-11
1167.400  2.751E-11
1167.600  2.801E-11
1167.800  2.858E-11
1168.000  2.805E-11
1168.200  2.691E-11
1168.400  2.772E-11
1168.600  2.959E-11
1168.800  2.517E-11
1169.000  2.428E-11
1169.200  2.240E-11
1169.400  2.552E-11
1169.600  2.476E-11
1169.800  2.571E-11
1170.000  2.725E-11
1170.200  2.551E-11
1170.400  2.880E-11
1170.600  2.642E-11
1170.800  2.662E-11
1171.000  2.655E-11
1171.200  2.441E-11
1171.400  2.671E-11
1171.600  2.597E-11
1171.800  3.013E-11
1172.000  2.803E-11
1172.200  2.468E-11
1172.400  2.134E-11
1172.600  2.427E-11
1172.800  2.580E-11
1173.000  2.494E-11
1173.200  2.384E-11
1173.400  2.401E-11
1173.600  2.502E-11
1173.800  2.252E-11
1174.000  1.976E-11
1174.200  1.990E-11
1174.400  1.653E-11
1174.600  1.549E-11
1174.800  1.043E-11
1175.000  7.390E-12
1175.200  7.383E-12
1175.400  7.170E-12
1175.600  4.471E-12
1175.800  4.339E-12
1176.000  5.843E-12
1176.200  7.778E-12
1176.400  7.481E-12
1176.600  1.167E-11
1176.800  1.731E-11
1177.000  2.006E-11
1177.200  2.367E-11
1177.400  2.132E-11
1177.600  2.162E-11
1177.800  2.432E-11
1178.000  2.651E-11
1178.200  2.697E-11
1178.400  2.550E-11
1178.600  2.310E-11
1178.800  2.594E-11
1179.000  2.537E-11
1179.200  2.598E-11
1179.400  2.667E-11
1179.600  2.751E-11
1179.800  2.692E-11
1180.000  2.614E-11
1180.200  2.552E-11
1180.400  2.335E-11
1180.600  2.428E-11
1180.800  2.277E-11
1181.000  2.632E-11
1181.200  2.739E-11
1181.400  2.608E-11
1181.600  2.669E-11
1181.800  2.611E-11
1182.000  2.563E-11
1182.200  2.845E-11
1182.400  2.887E-11
1182.600  2.430E-11
1182.800  2.457E-11
1183.000  1.878E-11
1183.200  2.502E-11
1183.400  2.337E-11
1183.600  2.633E-11
1183.800  2.616E-11
1184.000  2.593E-11
1184.200  2.602E-11
1184.400  2.633E-11
1184.600  2.353E-11
1184.800  2.626E-11
1185.000  2.735E-11
1185.200  2.598E-11
1185.400  2.639E-11
1185.600  2.644E-11
1185.800  2.685E-11
1186.000  2.760E-11
1186.200  2.028E-11
1186.400  2.893E-11
1186.600  2.822E-11
1186.800  2.730E-11
1187.000  2.819E-11
1187.200  2.734E-11
1187.400  2.039E-11
1187.600  2.536E-11
1187.800  2.353E-11
1188.000  2.693E-11
1188.200  2.908E-11
1188.400  2.846E-11
1188.600  2.597E-11
1188.800  2.619E-11
1189.000  2.573E-11
1189.200  2.316E-11
1189.400  2.872E-11
1189.600  2.626E-11
1189.800  2.708E-11
1190.000  2.693E-11
1190.200  2.573E-11
1190.400  2.032E-11
1190.600  2.622E-11
1190.800  2.680E-11
1191.000  2.872E-11
1191.200  2.643E-11
1191.400  2.611E-11
1191.600  2.515E-11
1191.800  2.463E-11
1192.000  2.421E-11
1192.200  2.419E-11
1192.400  2.340E-11
1192.600  2.284E-11
1192.800  2.481E-11
1193.000  2.421E-11
1193.200  2.540E-11
1193.400  2.191E-11
1193.600  2.425E-11
1193.800  2.644E-11
1194.000  2.401E-11
1194.200  2.537E-11
1194.400  2.498E-11
1194.600  2.422E-11
1194.800  2.512E-11
1195.000  2.453E-11
1195.200  2.280E-11
1195.400  2.616E-11
1195.600  2.616E-11
1195.800  2.536E-11
1196.000  2.368E-11
1196.200  2.675E-11
1196.400  2.363E-11
1196.600  2.535E-11
1196.800  2.776E-11
1197.000  2.237E-11
1197.200  2.331E-11
1197.400  2.279E-11
1197.600  2.614E-11
1197.800  2.381E-11
1198.000  2.456E-11
1198.200  2.121E-11
1198.400  2.373E-11
1198.600  2.233E-11
1198.800  2.354E-11
1199.000  2.367E-11
1199.200  2.366E-11
1199.400  1.844E-11
1199.600  1.944E-11
1199.800  2.315E-11
1200.000  2.384E-11
1200.200  2.094E-11
1200.400  2.612E-11
1200.600  1.689E-11
1200.800  1.976E-11
1201.000  2.065E-11
1201.200  2.131E-11
1201.400  2.020E-11
1201.600  2.336E-11
1201.800  2.325E-11
1202.000  2.352E-11
1202.200  2.181E-11
1202.400  2.185E-11
1202.600  2.182E-11
1202.800  2.360E-11
1203.000  2.204E-11
1203.200  2.094E-11
1203.400  2.173E-11
1203.600  2.068E-11
1203.800  2.199E-11
1204.000  2.112E-11
1204.200  2.117E-11
1204.400  1.816E-11
1204.600  1.856E-11
1204.800  2.056E-11
1205.000  1.899E-11
1205.200  1.961E-11
1205.400  1.862E-11
1205.600  1.710E-11
1205.800  1.488E-11
1206.000  1.243E-11
1206.200  8.629E-12
1206.400  2.106E-12
1206.600  1.907E-12
1206.800  6.586E-12
1207.000  8.713E-12
1207.200  1.317E-11
1207.400  1.389E-11
1207.600  1.348E-11
1207.800  1.497E-11
1208.000  1.588E-11
1208.200  1.566E-11
1208.400  1.578E-11
1208.600  1.412E-11
1208.800  1.495E-11
1209.000  1.399E-11
1209.200  1.163E-11
1209.400  1.368E-11
1209.600  1.286E-11
1209.800  1.345E-11
1210.000  1.302E-11
1210.200  1.141E-11
1210.400  1.140E-11
1210.600  1.038E-11
1210.800  1.026E-11
1211.000  9.742E-12
1211.200  8.489E-12
1211.400  8.199E-12
1211.600  7.767E-12
1211.800  7.385E-12
1212.000  5.781E-12
1212.200  5.650E-12
1212.400  5.080E-12
1212.600  4.339E-12
1212.800  3.795E-12
1213.000  3.049E-12
1213.200  3.000E-12
1213.400  2.203E-12
1213.600  1.698E-12
1213.800  1.347E-12
1214.000  9.040E-13
1214.200  7.689E-13
1214.400  1.510E-13
1214.600  1.503E-13
1214.800  1.497E-13
1215.000  1.492E-13
1215.200  1.488E-13
1215.400  1.485E-13
1215.600  1.483E-13
1215.800  5.134E-13
1216.000  1.480E-13
1216.200  1.480E-13
1216.400  1.480E-13
1216.600  1.480E-13
1216.800  4.017E-13
1217.000  4.503E-13
1217.200  8.100E-13
1217.400  1.103E-12
1217.600  1.443E-12
1217.800  2.018E-12
1218.000  2.256E-12
1218.200  2.773E-12
1218.400  3.316E-12
1218.600  3.821E-12
1218.800  4.560E-12
1219.000  5.215E-12
1219.200  5.443E-12
1219.400  6.416E-12
1219.600  6.843E-12
1219.800  6.987E-12
1220.000  7.496E-12
1220.200  8.888E-12
1220.400  9.433E-12
1220.600  9.891E-12
1220.800  1.036E-11
1221.000  7.989E-12
1221.200  1.196E-11
1221.400  1.234E-11
1221.600  1.280E-11
1221.800  1.259E-11
1222.000  1.231E-11
1222.200  1.361E-11
1222.400  1.376E-11
1222.600  1.460E-11
1222.800  1.418E-11
1223.000  1.521E-11
1223.200  1.539E-11
1223.400  1.675E-11
1223.600  1.651E-11
1223.800  1.584E-11
1224.000  1.581E-11
1224.200  1.637E-11
1224.400  1.768E-11
1224.600  1.808E-11
1224.800  1.804E-11
1225.000  1.738E-11
1225.200  1.723E-11
1225.400  1.686E-11
1225.600  1.642E-11
1225.800  1.891E-11
1226.000  1.987E-11
1226.200  2.022E-11
1226.400  1.934E-11
1226.600  1.803E-11
1226.800  1.563E-11
1227.000  1.749E-11
1227.200  2.018E-11
1227.400  2.015E-11
1227.600  1.970E-11
1227.800  2.042E-11
1228.000  2.060E-11
1228.200  1.934E-11
1228.400  1.976E-11
1228.600  1.449E-11
1228.800  2.015E-11
1229.000  1.931E-11
1229.200  1.989E-11
1229.400  1.904E-11
1229.600  2.001E-11
1229.800  1.909E-11
1230.000  1.516E-11
1230.200  1.639E-11
1230.400  1.956E-11
1230.600  2.137E-11
1230.800  2.120E-11
1231.000  2.179E-11
1231.200  2.220E-11
1231.400  2.174E-11
1231.600  2.262E-11
1231.800  2.232E-11
1232.000  2.236E-11
1232.200  2.261E-11
1232.400  2.222E-11
1232.600  2.143E-11
1232.800  2.193E-11
1233.000  2.153E-11
1233.200  2.181E-11
1233.400  2.195E-11
1233.600  2.190E-11
1233.800  2.136E-11
1234.000  2.131E-11
1234.200  2.064E-11
1234.400  2.119E-11
1234.600  2.297E-11
1234.800  2.248E-11
1235.000  2.364E-11
1235.200  2.356E-11
1235.400  2.157E-11
1235.600  2.187E-11
1235.800  2.243E-11
1236.000  2.194E-11
1236.200  2.111E-11
1236.400  2.293E-11
1236.600  2.230E-11
1236.800  2.177E-11
1237.000  2.295E-11
1237.200  2.291E-11
1237.400  2.275E-11
1237.600  2.392E-11
1237.800  2.256E-11
1238.000  2.432E-11
1238.200  2.307E-11
1238.400  2.106E-11
1238.600  2.213E-11
1238.800  2.235E-11
1239.000  2.105E-11
1239.200  2.140E-11
1239.400  2.326E-11
1239.600  2.221E-11
1239.800  2.151E-11
1240.000  2.334E-11
1240.200  2.254E-11
1240.400  2.323E-11
1240.600  2.323E-11
1240.800  2.092E-11
1241.000  2.320E-11
1241.200  2.323E-11
1241.400  2.466E-11
1241.600  2.369E-11
1241.800  2.309E-11
1242.000  2.404E-11
1242.200  2.413E-11
1242.400  2.162E-11
1242.600  2.357E-11
1242.800  2.146E-11
1243.000  2.127E-11
1243.200  2.127E-11
1243.400  2.311E-11
1243.600  2.213E-11
1243.800  2.394E-11
1244.000  2.395E-11
1244.200  2.310E-11
1244.400  2.241E-11
1244.600  2.189E-11
1244.800  2.333E-11
1245.000  2.381E-11
1245.200  2.064E-11
1245.400  2.347E-11
1245.600  2.261E-11
1245.800  2.282E-11
1246.000  2.265E-11
1246.200  2.308E-11
1246.400  2.229E-11
1246.600  2.165E-11
1246.800  2.089E-11
1247.000  1.990E-11
1247.200  1.864E-11
1247.400  1.257E-11
1247.600  1.891E-11
1247.800  1.884E-11
1248.000  2.235E-11
1248.200  2.193E-11
1248.400  2.192E-11
1248.600  2.257E-11
1248.800  2.361E-11
1249.000  2.335E-11
1249.200  2.268E-11
1249.400  2.383E-11
1249.600  2.224E-11
1249.800  2.119E-11
1250.000  2.229E-11
1250.200  2.151E-11
1250.400  2.055E-11
1250.600  2.202E-11
1250.800  2.380E-11
1251.000  2.364E-11
1251.200  2.285E-11
1251.400  2.197E-11
1251.600  2.186E-11
1251.800  2.313E-11
1252.000  2.187E-11
1252.200  2.410E-11
1252.400  2.038E-11
1252.600  2.057E-11
1252.800  2.222E-11
1253.000  2.355E-11
1253.200  2.097E-11
1253.400  2.225E-11
1253.600  2.092E-11
1253.800  2.078E-11
1254.000  1.978E-11
1254.200  2.364E-11
1254.400  2.347E-11
1254.600  2.201E-11
1254.800  2.166E-11
1255.000  2.098E-11
1255.200  2.197E-11
1255.400  2.138E-11
1255.600  2.310E-11
1255.800  2.305E-11
1256.000  2.286E-11
1256.200  2.308E-11
1256.400  2.354E-11
1256.600  1.925E-11
1256.800  2.403E-11
1257.000  2.403E-11
1257.200  2.351E-11
1257.400  2.238E-11
1257.600  2.113E-11
1257.800  2.192E-11
1258.000  2.377E-11
1258.200  2.273E-11
1258.400  2.292E-11
1258.600  2.124E-11
1258.800  2.341E-11
1259.000  2.322E-11
1259.200  2.263E-11
1259.400  2.166E-11
1259.600  2.168E-11
1259.800  2.253E-11
1260.000  2.264E-11
1260.200  2.090E-11
1260.400  1.914E-11
1260.600  2.293E-11
1260.800  2.111E-11
1261.000  2.266E-11
1261.200  2.182E-11
1261.400  2.216E-11
1261.600  2.037E-11
1261.800  2.161E-11
1262.000  2.246E-11
1262.200  2.008E-11
1262.400  2.049E-11
1262.600  2.187E-11
1262.800  2.344E-11
1263.000  2.081E-11
1263.200  2.176E-11
1263.400  2.352E-11
1263.600  2.225E-11
1263.800  2.332E-11
1264.000  2.412E-11
1264.200  2.256E-11
1264.400  2.274E-11
1264.600  2.219E-11
1264.800  2.189E-11
1265.000  2.167E-11
1265.200  2.176E-11
1265.400  2.288E-11
1265.600  2.304E-11
1265.800  2.117E-11
1266.000  2.026E-11
1266.200  2.054E-11
1266.400  2.289E-11
1266.600  2.336E-11
1266.800  2.296E-11
1267.000  2.223E-11
1267.200  2.238E-11
1267.400  2.130E-11
1267.600  2.261E-11
1267.800  2.260E-11
1268.000  2.087E-11
1268.200  2.079E-11
1268.400  2.188E-11
1268.600  2.334E-11
1268.800  2.227E-11
1269.000  2.014E-11
1269.200  2.151E-11
1269.400  2.311E-11
1269.600  2.311E-11
1269.800  2.269E-11
1270.000  2.344E-11
1270.200  2.340E-11
1270.400  2.277E-11
1270.600  2.164E-11
1270.800  2.256E-11
1271.000  2.254E-11
1271.200  2.016E-11
1271.400  2.075E-11
1271.600  2.066E-11
1271.800  2.093E-11
1272.000  2.126E-11
1272.200  2.139E-11
1272.400  2.230E-11
1272.600  2.182E-11
1272.800  2.303E-11
1273.000  2.254E-11
1273.200  2.225E-11
1273.400  2.227E-11
1273.600  2.220E-11
1273.800  2.069E-11
1274.000  2.241E-11
1274.200  2.303E-11
1274.400  2.282E-11
1274.600  2.213E-11
1274.800  2.152E-11
1275.000  1.845E-11
1275.200  1.828E-11
1275.400  2.199E-11
1275.600  2.218E-11
1275.800  2.250E-11
1276.000  2.119E-11
1276.200  2.039E-11
1276.400  2.144E-11
1276.600  2.235E-11
1276.800  2.053E-11
1277.000  2.177E-11
1277.200  1.893E-11
1277.400  2.050E-11
1277.600  2.069E-11
1277.800  2.188E-11
1278.000  2.193E-11
1278.200  2.166E-11
1278.400  2.266E-11
1278.600  2.298E-11
1278.800  2.046E-11
1279.000  2.231E-11
1279.200  2.191E-11
1279.400  2.192E-11
1279.600  2.248E-11
1279.800  2.214E-11
1280.000  2.151E-11
1280.200  2.080E-11
1280.400  2.110E-11
1280.600  2.226E-11
1280.800  2.228E-11
1281.000  2.217E-11
1281.200  2.253E-11
1281.400  2.115E-11
1281.600  2.087E-11
1281.800  2.213E-11
1282.000  2.114E-11
1282.200  2.133E-11
1282.400  1.985E-11
1282.600  2.100E-11
1282.800  2.155E-11
1283.000  2.124E-11
1283.200  2.049E-11
1283.400  2.199E-11
1283.600  2.142E-11
1283.800  2.203E-11
1284.000  2.016E-11
1284.200  1.969E-11
1284.400  2.229E-11
1284.600  2.267E-11
1284.800  2.197E-11
1285.000  2.237E-11
1285.200  2.217E-11
1285.400  2.166E-11
1285.600  2.189E-11
1285.800  2.134E-11
1286.000  2.106E-11
1286.200  1.894E-11
1286.400  2.136E-11
1286.600  2.037E-11
1286.800  2.229E-11
1287.000  2.167E-11
1287.200  2.001E-11
1287.400  1.990E-11
1287.600  2.242E-11
1287.800  2.108E-11
1288.000  2.241E-11
1288.200  2.144E-11
1288.400  2.103E-11
1288.600  2.005E-11
1288.800  2.176E-11
1289.000  2.246E-11
1289.200  2.229E-11
1289.400  2.135E-11
1289.600  2.167E-11
1289.800  2.155E-11
1290.000  1.986E-11
1290.200  2.234E-11
1290.400  2.158E-11
1290.600  2.199E-11
1290.800  2.174E-11
1291.000  2.153E-11
1291.200  2.178E-11
1291.400  2.093E-11
1291.600  1.389E-11
1291.800  2.154E-11
1292.000  2.198E-11
1292.200  2.092E-11
1292.400  2.202E-11
1292.600  2.152E-11
1292.800  2.224E-11
1293.000  2.216E-11
1293.200  2.087E-11
1293.400  1.901E-11
1293.600  1.852E-11
1293.800  2.168E-11
1294.000  2.176E-11
1294.200  2.164E-11
1294.400  2.033E-11
1294.600  5.868E-12
1294.800  2.000E-11
1295.000  2.112E-11
1295.200  2.168E-11
1295.400  2.066E-11
1295.600  2.091E-11
1295.800  1.951E-11
1296.000  2.071E-11
1296.200  1.918E-11
1296.400  1.769E-11
1296.600  1.573E-11
1296.800  1.855E-11
1297.000  2.073E-11
1297.200  2.110E-11
1297.400  2.065E-11
1297.600  2.085E-11
1297.800  2.198E-11
1298.000  1.874E-11
1298.200  2.109E-11
1298.400  2.104E-11
1298.600  1.733E-11
1298.800  1.288E-11
1299.000  1.463E-11
1299.200  1.755E-11
1299.400  1.850E-11
1299.600  1.985E-11
1299.800  2.206E-11
1300.000  2.182E-11
1300.200  2.090E-11
1300.400  2.014E-11
1300.600  2.134E-11
1300.800  1.978E-11
1301.000  1.988E-11
1301.200  1.929E-11
1301.400  2.027E-11
1301.600  2.049E-11
1301.800  2.006E-11
1302.000  2.160E-11
1302.200  1.799E-11
1302.400  2.118E-11
1302.600  2.122E-11
1302.800  2.036E-11
1303.000  2.051E-11
1303.200  1.967E-11
1303.400  1.899E-11
1303.600  2.100E-11
1303.800  2.126E-11
1304.000  2.191E-11
1304.200  2.056E-11
1304.400  1.703E-11
1304.600  1.912E-11
1304.800  1.973E-11
1305.000  1.961E-11
1305.200  1.922E-11
1305.400  1.819E-11
1305.600  1.858E-11
1305.800  2.064E-11
1306.000  2.049E-11
1306.200  1.897E-11
1306.400  1.909E-11
1306.600  1.909E-11
1306.800  2.093E-11
1307.000  2.091E-11
1307.200  1.882E-11
1307.400  1.979E-11
1307.600  2.121E-11
1307.800  2.219E-11
1308.000  2.134E-11
1308.200  2.007E-11
1308.400  2.143E-11
1308.600  2.125E-11
1308.800  1.984E-11
1309.000  2.091E-11
1309.200  2.022E-11
1309.400  1.657E-11
1309.600  1.925E-11
1309.800  2.108E-11
1310.000  2.117E-11
1310.200  2.051E-11
1310.400  2.170E-11
1310.600  2.094E-11
1310.800  2.137E-11
1311.000  2.048E-11
1311.200  2.057E-11
1311.400  2.095E-11
1311.600  2.119E-11
1311.800  2.124E-11
1312.000  2.054E-11
1312.200  2.100E-11
1312.400  1.980E-11
1312.600  1.911E-11
1312.800  2.101E-11
1313.000  2.085E-11
1313.200  2.038E-11
1313.400  2.062E-11
1313.600  2.113E-11
1313.800  2.036E-11
1314.000  2.034E-11
1314.200  2.063E-11
1314.400  2.117E-11
1314.600  1.995E-11
1314.800  2.036E-11
1315.000  1.929E-11
1315.200  2.067E-11
1315.400  2.039E-11
1315.600  2.111E-11
1315.800  2.010E-11
1316.000  2.031E-11
1316.200  1.946E-11
1316.400  1.954E-11
1316.600  2.056E-11
1316.800  2.091E-11
1317.000  1.956E-11
1317.200  1.917E-11
1317.400  2.088E-11
1317.600  1.940E-11
1317.800  2.044E-11
1318.000  2.021E-11
1318.200  2.044E-11
1318.400  2.030E-11
1318.600  2.063E-11
1318.800  2.122E-11
1319.000  2.109E-11
1319.200  2.003E-11
1319.400  1.996E-11
1319.600  2.062E-11
1319.800  2.029E-11
1320.000  2.071E-11
1320.200  2.051E-11
1320.400  2.042E-11
1320.600  2.041E-11
1320.800  1.884E-11
1321.000  1.916E-11
1321.200  1.986E-11
1321.400  2.015E-11
1321.600  2.075E-11
1321.800  2.021E-11
1322.000  2.095E-11
1322.200  2.085E-11
1322.400  2.003E-11
1322.600  2.048E-11
1322.800  2.048E-11
1323.000  2.037E-11
1323.200  1.984E-11
1323.400  2.041E-11
1323.600  2.059E-11
1323.800  1.952E-11
1324.000  1.856E-11
1324.200  1.917E-11
1324.400  1.913E-11
1324.600  2.027E-11
1324.800  1.714E-11
1325.000  1.889E-11
1325.200  2.033E-11
1325.400  2.040E-11
1325.600  2.040E-11
1325.800  1.971E-11
1326.000  2.017E-11
1326.200  2.020E-11
1326.400  2.068E-11
1326.600  2.068E-11
1326.800  1.929E-11
1327.000  2.052E-11
1327.200  1.816E-11
1327.400  2.070E-11
1327.600  1.850E-11
1327.800  1.885E-11
1328.000  1.677E-11
1328.200  1.947E-11
1328.400  1.836E-11
1328.600  1.834E-11
1328.800  1.928E-11
1329.000  1.860E-11
1329.200  1.835E-11
1329.400  2.083E-11
1329.600  1.988E-11
1329.800  1.532E-11
1330.000  1.666E-11
1330.200  1.805E-11
1330.400  1.911E-11
1330.600  2.001E-11
1330.800  1.936E-11
1331.000  1.920E-11
1331.200  1.889E-11
1331.400  1.944E-11
1331.600  1.890E-11
1331.800  1.902E-11
1332.000  1.946E-11
1332.200  1.997E-11
1332.400  1.868E-11
1332.600  1.938E-11
1332.800  1.892E-11
1333.000  1.890E-11
1333.200  1.883E-11
1333.400  2.000E-11
1333.600  2.006E-11
1333.800  1.965E-11
1334.000  1.830E-11
1334.200  1.807E-11
1334.400  1.612E-11
1334.600  1.371E-11
1334.800  1.530E-11
1335.000  1.571E-11
1335.200  1.626E-11
1335.400  1.572E-11
1335.600  1.155E-11
1335.800  1.339E-11
1336.000  1.689E-11
1336.200  1.862E-11
1336.400  2.013E-11
1336.600  1.899E-11
1336.800  1.960E-11
1337.000  1.991E-11
1337.200  1.999E-11
1337.400  1.931E-11
1337.600  1.856E-11
1337.800  1.934E-11
1338.000  1.858E-11
1338.200  1.955E-11
1338.400  2.036E-11
1338.600  1.983E-11
1338.800  2.005E-11
1339.000  1.897E-11
1339.200  2.003E-11
1339.400  2.037E-11
1339.600  1.902E-11
1339.800  1.932E-11
1340.000  2.044E-11
1340.200  1.833E-11
1340.400  1.988E-11
1340.600  1.984E-11
1340.800  1.920E-11
1341.000  1.958E-11
1341.200  1.940E-11
1341.400  1.861E-11
1341.600  1.895E-11
1341.800  1.951E-11
1342.000  1.964E-11
1342.200  1.771E-11
1342.400  1.444E-11
1342.600  1.889E-11
1342.800  1.951E-11
1343.000  1.955E-11
1343.200  1.865E-11
1343.400  1.865E-11
1343.600  1.826E-11
1343.800  1.929E-11
1344.000  1.917E-11
1344.200  1.946E-11
1344.400  1.929E-11
1344.600  2.013E-11
1344.800  1.834E-11
1345.000  1.830E-11
1345.200  1.951E-11
1345.400  1.871E-11
1345.600  1.885E-11
1345.800  1.861E-11
1346.000  1.860E-11
1346.200  1.860E-11
1346.400  1.669E-11
1346.600  1.791E-11
1346.800  1.802E-11
1347.000  1.824E-11
1347.200  1.822E-11
1347.400  1.810E-11
1347.600  1.797E-11
1347.800  1.876E-11
1348.000  1.667E-11
1348.200  1.813E-11
1348.400  1.855E-11
1348.600  1.792E-11
1348.800  1.843E-11
1349.000  1.942E-11
1349.200  1.907E-11
1349.400  1.911E-11
1349.600  1.881E-11
1349.800  1.952E-11
1350.000  1.927E-11
1350.200  1.851E-11
1350.400  1.865E-11
1350.600  1.755E-11
1350.800  1.952E-11
1351.000  1.961E-11
1351.200  1.876E-11
1351.400  1.948E-11
1351.600  1.947E-11
1351.800  1.979E-11
1352.000  1.966E-11
1352.200  1.917E-11
1352.400  1.889E-11
1352.600  1.752E-11
1352.800  1.801E-11
1353.000  1.817E-11
1353.200  1.933E-11
1353.400  1.889E-11
1353.600  1.814E-11
1353.800  1.701E-11
1354.000  1.822E-11
1354.200  1.779E-11
1354.400  1.877E-11
1354.600  1.917E-11
1354.800  1.811E-11
1355.000  1.792E-11
1355.200  1.780E-11
1355.400  1.634E-11
1355.600  1.863E-11
1355.800  1.865E-11
1356.000  1.888E-11
1356.200  1.790E-11
1356.400  1.864E-11
1356.600  1.804E-11
1356.800  1.831E-11
1357.000  1.678E-11
1357.200  1.748E-11
1357.400  1.754E-11
1357.600  1.919E-11
1357.800  1.794E-11
1358.000  1.819E-11
1358.200  1.785E-11
1358.400  1.746E-11
1358.600  1.741E-11
1358.800  1.844E-11
1359.000  1.829E-11
1359.200  1.847E-11
1359.400  1.797E-11
1359.600  1.767E-11
1359.800  1.692E-11
1360.000  1.834E-11
1360.200  1.840E-11
1360.400  1.775E-11
1360.600  1.836E-11
1360.800  1.786E-11
1361.000  1.483E-11
1361.200  1.684E-11
1361.400  1.811E-11
1361.600  1.765E-11
1361.800  1.870E-11
1362.000  1.871E-11
1362.200  1.855E-11
1362.400  1.735E-11
1362.600  1.835E-11
1362.800  1.791E-11
1363.000  1.788E-11
1363.200  1.784E-11
1363.400  1.713E-11
1363.600  1.847E-11
1363.800  1.921E-11
1364.000  1.817E-11
1364.200  1.842E-11
1364.400  1.841E-11
1364.600  1.832E-11
1364.800  1.755E-11
1365.000  1.747E-11
1365.200  1.551E-11
1365.400  1.804E-11
1365.600  1.808E-11
1365.800  1.740E-11
1366.000  1.636E-11
1366.200  1.718E-11
1366.400  1.670E-11
1366.600  1.763E-11
1366.800  1.709E-11
1367.000  1.605E-11
1367.200  1.838E-11
1367.400  1.756E-11
1367.600  1.800E-11
1367.800  1.875E-11
1368.000  1.681E-11
1368.200  1.530E-11
1368.400  1.585E-11
1368.600  1.724E-11
1368.800  1.655E-11
1369.000  1.696E-11
1369.200  1.764E-11
1369.400  1.765E-11
1369.600  1.518E-11
1369.800  1.707E-11
1370.000  1.788E-11
1370.200  1.680E-11
1370.400  1.787E-11
1370.600  1.791E-11
1370.800  1.860E-11
1371.000  1.759E-11
1371.200  1.732E-11
1371.400  1.657E-11
1371.600  1.383E-11
1371.800  1.783E-11
1372.000  1.774E-11
1372.200  1.783E-11
1372.400  1.725E-11
1372.600  1.686E-11
1372.800  1.756E-11
1373.000  1.442E-11
1373.200  1.703E-11
1373.400  1.734E-11
1373.600  1.734E-11
1373.800  1.743E-11
1374.000  1.727E-11
1374.200  1.826E-11
1374.400  1.587E-11
1374.600  1.602E-11
1374.800  1.562E-11
1375.000  1.595E-11
1375.200  1.619E-11
1375.400  1.706E-11
1375.600  1.643E-11
1375.800  1.717E-11
1376.000  1.743E-11
1376.200  1.715E-11
1376.400  1.796E-11
1376.600  1.797E-11
1376.800  1.681E-11
1377.000  1.325E-11
1377.200  1.528E-11
1377.400  1.442E-11
1377.600  1.637E-11
1377.800  1.670E-11
1378.000  1.675E-11
1378.200  1.696E-11
1378.400  1.691E-11
1378.600  1.718E-11
1378.800  1.667E-11
1379.000  1.650E-11
1379.200  1.641E-11
1379.400  1.603E-11
1379.600  1.573E-11
1379.800  1.746E-11
1380.000  1.665E-11
1380.200  1.764E-11
1380.400  1.719E-11
1380.600  1.520E-11
1380.800  1.437E-11
1381.000  1.657E-11
1381.200  1.767E-11
1381.400  1.680E-11
1381.600  1.456E-11
1381.800  1.700E-11
1382.000  1.748E-11
1382.200  1.710E-11
1382.400  1.668E-11
1382.600  1.702E-11
1382.800  1.557E-11
1383.000  1.571E-11
1383.200  1.719E-11
1383.400  1.772E-11
1383.600  1.771E-11
1383.800  1.459E-11
1384.000  1.589E-11
1384.200  1.610E-11
1384.400  1.430E-11
1384.600  1.539E-11
1384.800  1.444E-11
1385.000  1.689E-11
1385.200  1.667E-11
1385.400  1.648E-11
1385.600  1.679E-11
1385.800  1.685E-11
1386.000  1.612E-11
1386.200  1.407E-11
1386.400  1.672E-11
1386.600  1.674E-11
1386.800  1.617E-11
1387.000  1.672E-11
1387.200  1.594E-11
1387.400  1.373E-11
1387.600  1.621E-11
1387.800  1.614E-11
1388.000  1.565E-11
1388.200  1.655E-11
1388.400  1.622E-11
1388.600  1.607E-11
1388.800  1.671E-11
1389.000  1.684E-11
1389.200  1.705E-11
1389.400  1.687E-11
1389.600  1.653E-11
1389.800  1.552E-11
1390.000  1.676E-11
1390.200  1.646E-11
1390.400  1.655E-11
1390.600  1.695E-11
1390.800  1.637E-11
1391.000  1.652E-11
1391.200  1.652E-11
1391.400  1.511E-11
1391.600  1.490E-11
1391.800  1.535E-11
1392.000  1.508E-11
1392.200  1.500E-11
1392.400  1.257E-11
1392.600  1.344E-11
1392.800  1.375E-11
1393.000  1.281E-11
1393.200  1.107E-11
1393.400  9.670E-12
1393.600  7.874E-12
1393.800  6.228E-12
1394.000  9.578E-12
1394.200  1.075E-11
1394.400  1.335E-11
1394.600  1.406E-11
1394.800  1.319E-11
1395.000  1.564E-11
1395.200  1.550E-11
1395.400  1.515E-11
1395.600  1.574E-11
1395.800  1.617E-11
1396.000  1.594E-11
1396.200  1.502E-11
1396.400  1.637E-11
1396.600  1.546E-11
1396.800  1.561E-11
1397.000  1.236E-11
1397.200  1.423E-11
1397.400  1.620E-11
1397.600  1.601E-11
1397.800  1.564E-11
1398.000  1.626E-11
1398.200  1.560E-11
1398.400  1.529E-11
1398.600  1.603E-11
1398.800  1.581E-11
1399.000  1.603E-11
1399.200  1.576E-11
1399.400  1.659E-11
1399.600  1.659E-11
1399.800  1.621E-11
1400.000  1.579E-11
1400.200  1.588E-11
1400.400  1.597E-11
1400.600  1.605E-11
1400.800  1.627E-11
1401.000  1.594E-11
1401.200  1.530E-11
1401.400  1.607E-11
1401.600  1.487E-11
1401.800  1.455E-11
1402.000  1.506E-11
1402.200  1.348E-11
1402.400  1.248E-11
1402.600  9.606E-12
1402.800  7.564E-12
1403.000  1.065E-11
1403.200  1.371E-11
1403.400  1.436E-11
1403.600  1.525E-11
1403.800  1.584E-11
1404.000  1.519E-11
1404.200  1.648E-11
1404.400  1.581E-11
1404.600  1.587E-11
1404.800  1.527E-11
1405.000  1.505E-11
1405.200  1.527E-11
1405.400  1.541E-11
1405.600  1.551E-11
1405.800  1.558E-11
1406.000  1.548E-11
1406.200  1.490E-11
1406.400  1.438E-11
1406.600  1.681E-11
1406.800  1.655E-11
1407.000  1.576E-11
1407.200  1.664E-11
1407.400  1.671E-11
1407.600  1.674E-11
1407.800  1.450E-11
1408.000  1.304E-11
1408.200  1.481E-11
1408.400  1.564E-11
1408.600  1.644E-11
1408.800  1.528E-11
1409.000  1.566E-11
1409.200  1.665E-11
1409.400  1.361E-11
1409.600  1.569E-11
1409.800  1.474E-11
1410.000  1.299E-11
1410.200  1.585E-11
1410.400  1.559E-11
1410.600  1.560E-11
1410.800  1.674E-11
1411.000  1.561E-11
1411.200  1.522E-11
1411.400  1.538E-11
1411.600  1.557E-11
1411.800  1.570E-11
1412.000  1.339E-11
1412.200  1.357E-11
1412.400  1.648E-11
1412.600  1.647E-11
1412.800  1.408E-11
1413.000  1.416E-11
1413.200  1.501E-11
1413.400  1.620E-11
1413.600  1.605E-11
1413.800  1.547E-11
1414.000  1.581E-11
1414.200  1.581E-11
1414.400  1.453E-11
1414.600  1.354E-11
1414.800  1.262E-11
1415.000  1.375E-11
1415.200  1.536E-11
1415.400  1.549E-11
1415.600  1.368E-11
1415.800  1.407E-11
1416.000  1.468E-11
1416.200  1.467E-11
1416.400  1.523E-11
1416.600  1.389E-11
1416.800  1.559E-11
1417.000  1.354E-11
1417.200  1.354E-11
1417.400  1.378E-11
1417.600  1.285E-11
1417.800  1.233E-11
1418.000  1.440E-11
1418.200  1.159E-11
1418.400  1.281E-11
1418.600  1.302E-11
1418.800  1.349E-11
1419.000  1.240E-11
1419.200  1.348E-11
1419.400  1.286E-11
1419.600  1.524E-11
1419.800  1.453E-11
1420.000  1.225E-11
1420.200  1.247E-11
1420.400  1.416E-11
1420.600  1.470E-11
1420.800  1.603E-11
1421.000  1.485E-11
1421.200  1.374E-11
1421.400  1.577E-11
1421.600  1.389E-11
1421.800  1.590E-11
1422.000  1.574E-11
1422.200  1.508E-11
1422.400  1.228E-11
1422.600  1.550E-11
1422.800  1.437E-11
1423.000  1.536E-11
1423.200  1.331E-11
1423.400  1.556E-11
1423.600  1.634E-11
1423.800  1.474E-11
1424.000  1.466E-11
1424.200  1.261E-11
1424.400  1.502E-11
1424.600  1.455E-11
1424.800  1.576E-11
1425.000  1.547E-11
1425.200  1.535E-11
1425.400  1.567E-11
1425.600  1.564E-11
1425.800  1.471E-11
1426.000  1.407E-11
1426.200  1.358E-11
1426.400  1.034E-11
1426.600  1.282E-11
1426.800  1.345E-11
1427.000  1.268E-11
1427.200  1.241E-11
1427.400  1.332E-11
1427.600  1.276E-11
1427.800  1.366E-11
1428.000  1.331E-11
1428.200  1.401E-11
1428.400  1.427E-11
1428.600  1.476E-11
1428.800  1.553E-11
1429.000  1.481E-11
1429.200  1.495E-11
1429.400  1.523E-11
1429.600  1.576E-11
1429.800  1.632E-11
1430.000  1.503E-11
1430.200  1.517E-11
1430.400  1.278E-11
1430.600  1.288E-11
1430.800  1.272E-11
1431.000  1.315E-11
1431.200  1.522E-11
1431.400  1.313E-11
1431.600  1.313E-11
1431.800  1.291E-11
1432.000  1.261E-11
1432.200  1.346E-11
1432.400  1.488E-11
1432.600  1.528E-11
1432.800  1.559E-11
1433.000  1.511E-11
1433.200  1.347E-11
1433.400  1.307E-11
1433.600  9.971E-12
1433.800  1.351E-11
1434.000  1.446E-11
1434.200  1.133E-11
1434.400  1.424E-11
1434.600  1.558E-11
1434.800  1.470E-11
1435.000  1.473E-11
1435.200  1.419E-11
1435.400  1.438E-11
1435.600  1.455E-11
1435.800  1.315E-11
1436.000  1.380E-11
1436.200  1.475E-11
1436.400  1.528E-11
1436.600  1.461E-11
1436.800  1.444E-11
1437.000  1.461E-11
1437.200  1.335E-11
1437.400  1.484E-11
1437.600  1.496E-11
1437.800  1.515E-11
1438.000  1.379E-11
1438.200  1.355E-11
1438.400  1.575E-11
1438.600  1.523E-11
1438.800  1.383E-11
1439.000  1.463E-11
1439.200  1.547E-11
1439.400  1.439E-11
1439.600  1.490E-11
1439.800  1.389E-11
1440.000  1.435E-11
1440.200  1.524E-11
1440.400  1.474E-11
1440.600  1.531E-11
1440.800  1.498E-11
1441.000  1.399E-11
1441.200  1.391E-11
1441.400  1.442E-11
1441.600  1.438E-11
1441.800  1.506E-11
1442.000  1.400E-11
1442.200  1.369E-11
1442.400  1.404E-11
1442.600  1.344E-11
1442.800  1.465E-11
1443.000  1.477E-11
1443.200  1.377E-11
1443.400  1.394E-11
1443.600  1.375E-11
1443.800  1.568E-11
1444.000  1.542E-11
1444.200  1.522E-11
1444.400  1.499E-11
1444.600  1.493E-11
1444.800  1.334E-11
1445.000  1.234E-11
1445.200  1.467E-11
1445.400  1.390E-11
1445.600  1.531E-11
1445.800  1.529E-11
1446.000  1.357E-11
1446.200  1.309E-11
1446.400  1.272E-11
1446.600  1.397E-11
1446.800  1.401E-11
1447.000  1.478E-11
1447.200  1.442E-11
1447.400  1.508E-11
1447.600  1.361E-11
1447.800  1.387E-11
1448.000  1.370E-11
1448.200  1.455E-11
1448.400  1.499E-11
1448.600  1.484E-11
1448.800  1.465E-11
1449.000  1.460E-11
1449.200  1.519E-11
1449.400  1.522E-11
1449.600  1.432E-11
1449.800  1.333E-11
1450.000  1.422E-11
1450.200  1.384E-11
1450.400  1.387E-11
1450.600  1.366E-11
1450.800  1.357E-11
1451.000  1.481E-11
1451.200  1.478E-11
1451.400  1.316E-11
1451.600  1.360E-11
1451.800  1.383E-11
1452.000  1.523E-11
1452.200  1.469E-11
1452.400  1.363E-11
1452.600  1.411E-11
1452.800  1.467E-11
1453.000  1.460E-11
1453.200  1.489E-11
1453.400  1.499E-11
1453.600  1.402E-11
1453.800  1.487E-11
1454.000  1.312E-11
1454.200  1.269E-11
1454.400  1.416E-11
1454.600  1.472E-11
1454.800  1.417E-11
1455.000  1.337E-11
1455.200  1.373E-11
1455.400  1.490E-11
1455.600  1.229E-11
1455.800  1.390E-11
1456.000  1.596E-11
1456.200  1.594E-11
1456.400  1.467E-11
1456.600  1.214E-11
1456.800  1.445E-11
1457.000  1.499E-11
1457.200  1.365E-11
1457.400  1.404E-11
1457.600  1.519E-11
1457.800  1.460E-11
1458.000  1.542E-11
1458.200  1.518E-11
1458.400  1.347E-11
1458.600  1.441E-11
1458.800  1.428E-11
1459.000  1.519E-11
1459.200  1.415E-11
1459.400  1.507E-11
1459.600  1.455E-11
1459.800  1.328E-11
1460.000  1.246E-11
1460.200  1.246E-11
1460.400  1.245E-11
1460.600  1.349E-11
1460.800  1.260E-11
1461.000  1.351E-11
1461.200  1.338E-11
1461.400  1.383E-11
1461.600  1.408E-11
1461.800  1.222E-11
1462.000  1.429E-11
1462.200  1.295E-11
1462.400  1.427E-11
1462.600  1.425E-11
1462.800  1.449E-11
1463.000  1.391E-11
1463.200  1.285E-11
1463.400  1.358E-11
1463.600  1.348E-11
1463.800  1.421E-11
1464.000  1.356E-11
1464.200  1.337E-11
1464.400  1.434E-11
1464.600  1.445E-11
1464.800  1.271E-11
1465.000  1.228E-11
1465.200  1.287E-11
1465.400  1.398E-11
1465.600  1.348E-11
1465.800  1.122E-11
1466.000  1.248E-11
1466.200  1.261E-11
1466.400  1.054E-11
1466.600  1.343E-11
1466.800  1.293E-11
1467.000  1.273E-11
1467.200  1.281E-11
1467.400  1.320E-11
1467.600  1.261E-11
1467.800  1.409E-11
1468.000  1.425E-11
1468.200  1.408E-11
1468.400  1.456E-11
1468.600  1.446E-11
1468.800  1.424E-11
1469.000  1.309E-11
1469.200  1.295E-11
1469.400  1.407E-11
1469.600  1.407E-11
1469.800  1.264E-11
1470.000  1.405E-11
1470.200  1.352E-11
1470.400  1.407E-11
1470.600  1.251E-11
1470.800  1.510E-11
1471.000  1.482E-11
1471.200  1.340E-11
1471.400  1.442E-11
1471.600  1.347E-11
1471.800  1.442E-11
1472.000  1.413E-11
1472.200  1.416E-11
1472.400  1.228E-11
1472.600  1.258E-11
1472.800  1.332E-11
1473.000  1.292E-11
1473.200  1.102E-11
1473.400  1.087E-11
1473.600  1.431E-11
1473.800  1.389E-11
1474.000  1.356E-11
1474.200  1.268E-11
1474.400  1.225E-11
1474.600  1.156E-11
1474.800  1.389E-11
1475.000  1.416E-11
1475.200  1.372E-11
1475.400  1.351E-11
1475.600  1.143E-11
1475.800  1.253E-11
1476.000  1.306E-11
1476.200  1.312E-11
1476.400  1.234E-11
1476.600  1.092E-11
1476.800  1.232E-11
1477.000  1.047E-11
1477.200  1.322E-11
1477.400  1.311E-11
1477.600  1.364E-11
1477.800  1.394E-11
1478.000  1.401E-11
1478.200  1.267E-11
1478.400  1.246E-11
1478.600  1.386E-11
1478.800  1.314E-11
1479.000  1.392E-11
1479.200  1.397E-11
1479.400  1.367E-11
1479.600  1.209E-11
1479.800  1.413E-11
1480.000  1.281E-11
1480.200  1.418E-11
1480.400  1.341E-11
1480.600  1.385E-11
1480.800  1.318E-11
1481.000  1.325E-11
1481.200  1.211E-11
1481.400  1.307E-11
1481.600  1.388E-11
1481.800  1.094E-11
1482.000  1.364E-11
1482.200  1.251E-11
1482.400  1.404E-11
1482.600  1.393E-11
1482.800  1.385E-11
1483.000  1.355E-11
1483.200  1.219E-11
1483.400  1.212E-11
1483.600  1.366E-11
1483.800  1.405E-11
1484.000  1.395E-11
1484.200  1.222E-11
1484.400  1.258E-11
1484.600  1.278E-11
1484.800  1.293E-11
1485.000  1.262E-11
1485.200  1.324E-11
1485.400  1.340E-11
1485.600  1.419E-11
1485.800  1.416E-11
1486.000  1.341E-11
1486.200  1.331E-11
1486.400  1.414E-11
1486.600  1.307E-11
1486.800  1.331E-11
1487.000  1.253E-11
1487.200  1.371E-11
1487.400  1.349E-11
1487.600  1.354E-11
1487.800  1.220E-11
1488.000  1.167E-11
1488.200  1.346E-11
1488.400  1.372E-11
1488.600  1.390E-11
1488.800  1.256E-11
1489.000  1.377E-11
1489.200  1.348E-11
1489.400  1.328E-11
1489.600  1.190E-11
1489.800  1.353E-11
1490.000  1.360E-11
1490.200  1.222E-11
1490.400  1.256E-11
1490.600  1.334E-11
1490.800  1.316E-11
1491.000  1.025E-11
1491.200  1.331E-11
1491.400  1.421E-11
1491.600  1.280E-11
1491.800  9.673E-12
1492.000  1.267E-11
1492.200  1.300E-11
1492.400  1.383E-11
1492.600  1.139E-11
1492.800  1.320E-11
1493.000  1.260E-11
1493.200  1.213E-11
1493.400  1.180E-11
1493.600  1.055E-11
1493.800  1.335E-11
1494.000  1.341E-11
1494.200  1.058E-11
1494.400  1.033E-11
1494.600  1.187E-11
1494.800  1.238E-11
1495.000  1.118E-11
1495.200  1.312E-11
1495.400  1.322E-11
1495.600  1.387E-11
1495.800  1.342E-11
1496.000  1.287E-11
1496.200  1.344E-11
1496.400  1.290E-11
1496.600  1.227E-11
1496.800  1.200E-11
1497.000  1.234E-11
1497.200  1.236E-11
1497.400  1.318E-11
1497.600  1.309E-11
1497.800  1.278E-11
1498.000  1.287E-11
1498.200  1.325E-11
1498.400  1.327E-11
1498.600  1.258E-11
1498.800  8.894E-12
1499.000  1.237E-11
1499.200  1.162E-11
1499.400  1.178E-11
1499.600  1.255E-11
1499.800  1.257E-11
1500.000  1.127E-11
1500.200  1.030E-11
1500.400  1.263E-11
1500.600  1.304E-11
1500.800  1.339E-11
1501.000  1.190E-11
1501.200  9.259E-12
1501.400  1.336E-11
1501.600  1.346E-11
1501.800  1.207E-11
1502.000  1.274E-11
1502.200  9.953E-12
1502.400  1.277E-11
1502.600  1.269E-11
1502.800  1.265E-11
1503.000  1.280E-11
1503.200  1.292E-11
1503.400  1.304E-11
1503.600  1.239E-11
1503.800  1.282E-11
1504.000  1.242E-11
1504.200  1.108E-11
1504.400  1.279E-11
1504.600  1.279E-11
1504.800  1.046E-11
1505.000  1.078E-11
1505.200  9.953E-12
1505.400  1.156E-11
1505.600  1.285E-11
1505.800  1.122E-11
1506.000  1.184E-11
1506.200  1.286E-11
1506.400  1.241E-11
1506.600  1.290E-11
1506.800  1.133E-11
1507.000  1.214E-11
1507.200  1.298E-11
1507.400  1.273E-11
1507.600  1.329E-11
1507.800  1.355E-11
1508.000  1.245E-11
1508.200  1.353E-11
1508.400  1.341E-11
1508.600  1.344E-11
1508.800  1.144E-11
1509.000  1.172E-11
1509.200  1.243E-11
1509.400  1.290E-11
1509.600  1.280E-11
1509.800  1.170E-11
1510.000  1.020E-11
1510.200  1.195E-11
1510.400  1.223E-11
1510.600  1.108E-11
1510.800  1.169E-11
1511.000  1.236E-11
1511.200  8.812E-12
1511.400  1.223E-11
1511.600  1.075E-11
1511.800  1.299E-11
1512.000  1.153E-11
1512.200  9.807E-12
1512.400  1.026E-11
1512.600  1.263E-11
1512.800  8.632E-12
1513.000  1.111E-11
1513.200  1.085E-11
1513.400  1.244E-11
1513.600  1.168E-11
1513.800  1.284E-11
1514.000  1.258E-11
1514.200  1.262E-11
1514.400  1.185E-11
1514.600  1.242E-11
1514.800  1.289E-11
1515.000  1.076E-11
1515.200  1.272E-11
1515.400  9.759E-12
1515.600  1.099E-11
1515.800  1.122E-11
1516.000  1.029E-11
1516.200  1.188E-11
1516.400  1.259E-11
1516.600  1.211E-11
1516.800  1.006E-11
1517.000  8.544E-12
1517.200  1.117E-11
1517.400  1.114E-11
1517.600  9.060E-12
1517.800  1.024E-11
1518.000  1.181E-11
1518.200  1.263E-11
1518.400  1.298E-11
1518.600  1.215E-11
1518.800  9.917E-12
1519.000  1.078E-11
1519.200  1.160E-11
1519.400  1.049E-11
1519.600  1.012E-11
1519.800  1.169E-11
1520.000  1.041E-11
1520.200  1.193E-11
1520.400  1.171E-11
1520.600  1.197E-11
1520.800  1.249E-11
1521.000  1.171E-11
1521.200  1.244E-11
1521.400  1.183E-11
1521.600  1.004E-11
1521.800  1.126E-11
1522.000  1.270E-11
1522.200  1.295E-11
1522.400  1.199E-11
1522.600  1.258E-11
1522.800  1.126E-11
1523.000  1.273E-11
1523.200  1.182E-11
1523.400  1.263E-11
1523.600  1.254E-11
1523.800  1.161E-11
1524.000  1.213E-11
1524.200  1.253E-11
1524.400  1.154E-11
1524.600  9.439E-12
1524.800  9.875E-12
1525.000  9.994E-12
1525.200  1.039E-11
1525.400  1.240E-11
1525.600  1.182E-11
1525.800  1.205E-11
1526.000  1.201E-11
1526.200  1.151E-11
1526.400  1.059E-11
1526.600  9.324E-12
1526.800  9.796E-12
1527.000  7.372E-12
1527.200  8.964E-12
1527.400  1.153E-11
1527.600  1.231E-11
1527.800  1.220E-11
1528.000  1.236E-11
1528.200  1.143E-11
1528.400  8.541E-12
1528.600  1.177E-11
1528.800  1.218E-11
1529.000  1.234E-11
1529.200  1.265E-11
1529.400  1.221E-11
1529.600  1.159E-11
1529.800  1.062E-11
1530.000  9.280E-12
1530.200  8.388E-12
1530.400  1.093E-11
1530.600  1.220E-11
1530.800  1.176E-11
1531.000  9.796E-12
1531.200  1.077E-11
1531.400  9.189E-12
1531.600  8.228E-12
1531.800  7.781E-12
1532.000  1.098E-11
1532.200  1.137E-11
1532.400  1.178E-11
1532.600  8.683E-12
1532.800  1.101E-11
1533.000  8.590E-12
1533.200  9.720E-12
1533.400  1.054E-11
1533.600  1.196E-11
1533.800  1.113E-11
1534.000  8.221E-12
1534.200  9.960E-12
1534.400  1.041E-11
1534.600  1.146E-11
1534.800  1.144E-11
1535.000  1.120E-11
1535.200  1.145E-11
1535.400  1.057E-11
1535.600  1.057E-11
1535.800  9.517E-12
1536.000  1.125E-11
1536.200  1.166E-11
1536.400  1.002E-11
1536.600  1.002E-11
1536.800  1.151E-11
1537.000  1.168E-11
1537.200  1.117E-11
1537.400  6.625E-12
1537.600  1.100E-11
1537.800  1.126E-11
1538.000  1.093E-11
1538.200  8.967E-12
1538.400  9.756E-12
1538.600  1.029E-11
1538.800  1.081E-11
1539.000  1.085E-11
1539.200  1.055E-11
1539.400  1.105E-11
1539.600  1.137E-11
1539.800  1.133E-11
1540.000  9.238E-12
1540.200  1.212E-11
1540.400  1.185E-11
1540.600  1.185E-11
1540.800  1.019E-11
1541.000  1.035E-11
1541.200  1.075E-11
1541.400  1.016E-11
1541.600  1.236E-11
1541.800  1.058E-11
1542.000  9.097E-12
1542.200  1.149E-11
1542.400  1.221E-11
1542.600  1.019E-11
1542.800  1.091E-11
1543.000  1.179E-11
1543.200  1.212E-11
1543.400  1.157E-11
1543.600  9.461E-12
1543.800  1.201E-11
1544.000  1.107E-11
1544.200  8.137E-12
1544.400  9.933E-12
1544.600  1.129E-11
1544.800  1.029E-11
1545.000  1.069E-11
1545.200  9.887E-12
1545.400  1.077E-11
1545.600  1.137E-11
1545.800  1.111E-11
1546.000  1.111E-11
1546.200  7.672E-12
1546.400  7.822E-12
1546.600  9.445E-12
1546.800  9.080E-12
1547.000  1.032E-11
1547.200  1.083E-11
1547.400  9.940E-12
1547.600  8.918E-12
1547.800  9.461E-12
1548.000  8.794E-12
1548.200  6.439E-12
1548.400  9.462E-12
1548.600  1.097E-11
1548.800  1.031E-11
1549.000  1.087E-11
1549.200  9.977E-12
1549.400  1.039E-11
1549.600  9.440E-12
1549.800  1.052E-11
1550.000  9.723E-12
1550.200  9.925E-12
1550.400  9.993E-12
1550.600  1.003E-11
1550.800  5.846E-12
1551.000  9.958E-12
1551.200  1.055E-11
1551.400  1.058E-11
1551.600  9.577E-12
1551.800  1.197E-11
1552.000  1.158E-11
1552.200  1.068E-11
1552.400  8.104E-12
1552.600  1.029E-11
1552.800  1.138E-11
1553.000  6.762E-12
1553.200  8.151E-12
1553.400  1.114E-11
1553.600  1.032E-11
1553.800  1.000E-11
1554.000  1.131E-11
1554.200  1.119E-11
1554.400  1.182E-11
1554.600  1.159E-11
1554.800  1.122E-11
1555.000  1.075E-11
1555.200  9.874E-12
1555.400  1.011E-11
1555.600  9.190E-12
1555.800  8.606E-12
1556.000  9.596E-12
1556.200  1.178E-11
1556.400  9.231E-12
1556.600  1.196E-11
1556.800  9.158E-12
1557.000  1.191E-11
1557.200  1.132E-11
1557.400  9.055E-12
1557.600  1.065E-11
1557.800  1.103E-11
1558.000  1.233E-11
1558.200  1.219E-11
1558.400  1.017E-11
1558.600  9.682E-12
1558.800  1.049E-11
1559.000  8.093E-12
1559.200  1.073E-11
1559.400  9.773E-12
1559.600  1.040E-11
1559.800  1.156E-11
1560.000  1.169E-11
1560.200  1.065E-11
1560.400  1.024E-11
1560.600  1.019E-11
1560.800  9.878E-12
1561.000  1.068E-11
1561.200  1.092E-11
1561.400  1.052E-11
1561.600  1.096E-11
1561.800  8.539E-12
1562.000  1.091E-11
1562.200  1.110E-11
1562.400  1.084E-11
1562.600  8.265E-12
1562.800  1.024E-11
1563.000  1.124E-11
1563.200  9.589E-12
1563.400  1.156E-11
1563.600  1.077E-11
1563.800  1.090E-11
1564.000  1.057E-11
1564.200  1.059E-11
1564.400  1.066E-11
1564.600  9.341E-12
1564.800  1.142E-11
1565.000  1.153E-11
1565.200  1.040E-11
1565.400  1.013E-11
1565.600  1.140E-11
1565.800  1.130E-11
1566.000  1.224E-11
1566.200  1.212E-11
1566.400  1.024E-11
1566.600  1.184E-11
1566.800  1.022E-11
1567.000  1.118E-11
1567.200  1.162E-11
1567.400  1.200E-11
1567.600  1.059E-11
1567.800  1.008E-11
1568.000  1.083E-11
1568.200  1.046E-11
1568.400  1.080E-11
1568.600  1.003E-11
1568.800  8.597E-12
1569.000  9.892E-12
1569.200  1.085E-11
1569.400  1.007E-11
1569.600  9.124E-12
1569.800  1.164E-11
1570.000  1.011E-11
1570.200  1.114E-11
1570.400  1.082E-11
1570.600  9.474E-12
1570.800  1.006E-11
1571.000  8.609E-12
1571.200  9.101E-12
1571.400  1.081E-11
1571.600  1.066E-11
1571.800  1.088E-11
1572.000  1.148E-11
1572.200  1.012E-11
1572.400  9.919E-12
1572.600  1.081E-11
1572.800  9.134E-12
1573.000  1.141E-11
1573.200  1.158E-11
1573.400  9.311E-12
1573.600  9.996E-12
1573.800  1.078E-11
1574.000  1.059E-11
1574.200  1.122E-11
1574.400  1.128E-11
1574.600  1.130E-11
1574.800  9.382E-12
1575.000  9.344E-12
1575.200  9.347E-12
1575.400  1.104E-11
1575.600  1.116E-11
1575.800  1.146E-11
1576.000  1.069E-11
1576.200  1.124E-11
1576.400  1.110E-11
1576.600  9.370E-12
1576.800  1.069E-11
1577.000  1.090E-11
1577.200  9.488E-12
1577.400  9.901E-12
1577.600  1.073E-11
1577.800  8.894E-12
1578.000  1.038E-11
1578.200  1.084E-11
1578.400  1.122E-11
1578.600  9.944E-12
1578.800  1.061E-11
1579.000  1.117E-11
1579.200  9.524E-12
1579.400  1.022E-11
1579.600  1.030E-11
1579.800  7.366E-12
1580.000  1.011E-11
1580.200  9.116E-12
1580.400  8.900E-12
1580.600  1.022E-11
1580.800  9.038E-12
1581.000  7.915E-12
1581.200  9.033E-12
1581.400  1.106E-11
1581.600  1.195E-11
1581.800  1.141E-11
1582.000  7.995E-12
1582.400  9.598E-12
1582.600  1.018E-11
1582.800  1.104E-11
1583.000  1.076E-11
1583.200  1.076E-11
1583.400  8.192E-12
1583.600  1.019E-11
1583.800  1.169E-11
1584.000  9.943E-12
1584.200  1.224E-11
1584.400  1.094E-11
1584.600  1.153E-11
1584.800  1.147E-11
1585.000  1.032E-11
1585.200  1.143E-11
1585.400  1.042E-11
1585.600  1.145E-11
1585.800  9.761E-12
1586.000  1.115E-11
1586.200  1.003E-11
1586.400  1.143E-11
1586.600  1.117E-11
1586.800  1.109E-11
1587.000  1.072E-11
1587.200  1.075E-11
1587.400  9.820E-12
1587.600  1.066E-11
1587.800  1.020E-11
1588.000  1.014E-11
1588.200  9.857E-12
1588.400  1.126E-11
1588.600  1.087E-11
1588.800  8.957E-12
1589.000  1.032E-11
1589.200  9.738E-12
1589.400  1.067E-11
1589.600  1.028E-11
1589.800  1.083E-11
1590.000  1.041E-11
1590.200  1.084E-11
1590.400  1.116E-11
1590.600  1.067E-11
1590.800  1.068E-11
1591.000  1.092E-11
1591.200  1.084E-11
1591.400  1.007E-11
1591.600  1.084E-11
1591.800  1.075E-11
1592.000  1.016E-11
1592.200  9.822E-12
1592.400  9.620E-12
1592.600  8.104E-12
1592.800  1.042E-11
1593.000  1.081E-11
1593.200  1.022E-11
1593.400  9.474E-12
1593.600  1.001E-11
1593.800  9.502E-12
1594.000  9.776E-12
1594.200  9.693E-12
1594.400  1.011E-11
1594.600  8.684E-12
1594.800  9.603E-12
1595.000  8.504E-12
1595.200  7.951E-12
1595.400  8.364E-12
1595.600  8.416E-12
1595.800  9.993E-12
1596.000  8.986E-12
1596.200  9.893E-12
1596.400  1.012E-11
1596.600  9.419E-12
1596.800  1.001E-11
1597.000  7.803E-12
1597.200  9.232E-12
1597.400  8.754E-12
1597.600  8.932E-12
1597.800  1.009E-11
1598.000  8.912E-12
1598.200  9.019E-12
1598.400  9.198E-12
1598.600  9.874E-12
1598.800  1.039E-11
1599.000  1.104E-11
1599.600  1.103E-11
1599.800  1.139E-11
1600.000  1.060E-11
1600.200  8.347E-12
1600.400  1.109E-11
1600.600  9.807E-12
1600.800  6.871E-12
1601.000  9.595E-12
1601.200  9.456E-12
1601.400  9.199E-12
1601.600  8.933E-12
1601.800  8.539E-12
1602.000  7.680E-12
1602.200  9.495E-12
1602.400  8.764E-12
1602.600  1.152E-11
1602.800  1.039E-11
1603.000  7.154E-12
1603.200  7.066E-12
1603.400  1.006E-11
1603.600  9.920E-12
1603.800  1.126E-11
1604.000  1.023E-11
1604.200  1.010E-11
1604.400  9.336E-12
1604.600  9.155E-12
1604.800  1.049E-11
1605.000  1.009E-11
1605.200  9.767E-12
1605.400  1.098E-11
1605.600  9.154E-12
1605.800  6.784E-12
1606.000  8.665E-12
1606.200  1.023E-11
1606.400  1.058E-11
1606.600  8.780E-12
1606.800  9.374E-12
1607.000  9.664E-12
1607.200  1.036E-11
1607.400  1.069E-11
1607.600  8.259E-12
1607.800  8.649E-12
1608.000  9.767E-12
1608.200  1.070E-11
1608.400  1.078E-11
1608.600  1.025E-11
1608.800  1.062E-11
1609.000  9.847E-12
1609.200  8.725E-12
1609.400  1.059E-11
1609.600  1.066E-11
1609.800  8.086E-12
1610.000  8.750E-12
1610.200  8.665E-12
1610.400  9.385E-12
1610.600  9.939E-12
1610.800  1.051E-11
1611.000  8.458E-12
1611.200  1.042E-11
1611.400  1.060E-11
1611.600  8.886E-12
1611.800  4.673E-12
1612.000  7.934E-12
1612.200  9.290E-12
1612.400  1.032E-11
1612.600  9.505E-12
1612.800  1.018E-11
1613.000  1.120E-11
1613.200  1.098E-11
1613.400  1.071E-11
1613.600  9.581E-12
1613.800  1.051E-11
1614.000  7.845E-12
1614.200  8.992E-12
1614.400  9.994E-12
1614.600  9.407E-12
1614.800  9.606E-12
1615.000  9.331E-12
1615.200  1.054E-11
1615.400  1.116E-11
1615.600  1.016E-11
1615.800  1.092E-11
1616.000  1.021E-11
1616.200  1.031E-11
1616.400  1.035E-11
1616.600  8.764E-12
1616.800  1.027E-11
1617.000  1.146E-11
1617.200  8.568E-12
1617.400  9.927E-12
1617.600  9.796E-12
1617.800  9.760E-12
1618.000  8.930E-12
1618.200  1.024E-11
1618.400  1.041E-11
1618.600  9.521E-12
1618.800  9.817E-12
1619.000  9.438E-12
1619.200  1.093E-11
1619.400  9.988E-12
1619.600  9.103E-12
1619.800  1.083E-11
1620.000  9.887E-12
1620.200  8.455E-12
1620.400  9.196E-12
1620.600  9.181E-12
1620.800  9.055E-12
1621.000  9.303E-12
1621.200  9.910E-12
1621.400  9.316E-12
1621.600  8.476E-12
1621.800  8.635E-12
1622.000  9.777E-12
1622.200  9.657E-12
1622.400  9.605E-12
1622.600  1.005E-11
1622.800  8.938E-12
1623.000  1.026E-11
1623.200  1.030E-11
1623.400  9.482E-12
1623.600  1.037E-11
1623.800  1.081E-11
1624.000  1.009E-11
1624.200  9.874E-12
1624.400  1.100E-11
1624.600  9.876E-12
1624.800  9.866E-12
1625.000  1.022E-11
1625.200  1.041E-11
1625.400  9.094E-12
1625.600  1.035E-11
1625.800  1.025E-11
1626.000  1.028E-11
1626.200  8.944E-12
1626.400  8.315E-12
1626.600  9.728E-12
1626.800  1.048E-11
1627.000  1.042E-11
1627.200  1.042E-11
1627.400  9.035E-12
1627.600  1.028E-11
1627.800  8.629E-12
1628.000  1.026E-11
1628.200  9.588E-12
1628.400  8.287E-12
1628.600  1.049E-11
1628.800  1.035E-11
1629.000  8.977E-12
1629.200  7.609E-12
1629.400  8.428E-12
1629.600  9.709E-12
1629.800  9.557E-12
1630.000  1.005E-11
1630.200  8.765E-12
1630.400  9.457E-12
1630.600  9.790E-12
1630.800  9.630E-12
1631.000  8.972E-12
1631.200  9.031E-12
1631.400  8.090E-12
1631.600  7.868E-12
1631.800  9.175E-12
1632.000  1.023E-11
1632.200  9.119E-12
1632.400  9.429E-12
1632.600  9.429E-12
1632.800  9.303E-12
1633.000  8.782E-12
1633.200  1.020E-11
1633.400  9.904E-12
1633.600  9.057E-12
1633.800  9.922E-12
1634.000  8.815E-12
1634.200  8.614E-12
1634.400  9.446E-12
1634.600  9.629E-12
1634.800  9.536E-12
1635.000  9.002E-12
1635.200  9.412E-12
1635.400  8.263E-12
1635.600  8.624E-12
1635.800  1.034E-11
1636.000  1.031E-11
1636.200  8.835E-12
1636.400  9.355E-12
1636.600  1.035E-11
1636.800  9.873E-12
1637.000  9.000E-12
1637.200  9.640E-12
1637.400  9.333E-12
1637.600  1.049E-11
1637.800  1.062E-11
1638.000  8.650E-12
1638.200  9.215E-12
1638.400  1.028E-11
1638.600  1.029E-11
1638.800  1.006E-11
1639.000  9.546E-12
1639.200  8.609E-12
1639.400  6.986E-12
1639.600  9.442E-12
1639.800  9.201E-12
1640.000  8.099E-12
1640.200  8.610E-12
1640.400  8.182E-12
1640.600  9.269E-12
1640.800  8.757E-12
1641.000  9.502E-12
1641.200  9.842E-12
1641.400  1.032E-11
1641.600  9.302E-12
1641.800  8.717E-12
1642.000  9.565E-12
1642.200  8.426E-12
1642.400  9.414E-12
1642.600  1.003E-11
1642.800  8.361E-12
1643.000  9.527E-12
1643.200  8.612E-12
1643.400  8.759E-12
1643.600  9.203E-12
1643.800  9.662E-12
1644.000  9.868E-12
1644.200  9.681E-12
1644.400  9.835E-12
1644.600  8.942E-12
1644.800  7.906E-12
1645.000  8.831E-12
1645.200  9.195E-12
1645.400  9.725E-12
1645.600  1.001E-11
1645.800  9.372E-12
1646.000  9.833E-12
1646.200  9.840E-12
1646.400  1.021E-11
1646.600  1.021E-11
1646.800  9.906E-12
1647.000  8.976E-12
1647.200  8.187E-12
1647.400  7.855E-12
1647.600  8.811E-12
1647.800  1.031E-11
1648.000  1.032E-11
1648.200  9.703E-12
1648.400  9.624E-12
1648.600  9.874E-12
1648.800  9.713E-12
1649.000  9.381E-12
1649.200  8.771E-12
1649.400  9.686E-12
1649.600  9.170E-12
1649.800  9.125E-12
1650.000  9.231E-12
1650.200  9.461E-12
1650.400  9.063E-12
1650.600  9.064E-12
1650.800  1.015E-11
1651.000  9.746E-12
1651.200  9.811E-12
1651.400  9.791E-12
1651.600  7.348E-12
1651.800  7.785E-12
1652.000  7.852E-12
1652.200  8.726E-12
1652.400  9.080E-12
1652.600  1.001E-11
1652.800  9.402E-12
1653.000  7.968E-12
1653.200  8.858E-12
1653.400  7.414E-12
1653.600  9.283E-12
1653.800  9.270E-12
1654.000  9.982E-12
1654.200  9.429E-12
1654.400  8.995E-12
1654.600  9.211E-12
1654.800  1.024E-11
1655.000  1.019E-11
1655.200  1.005E-11
1655.400  9.213E-12
1655.600  1.034E-11
1655.800  1.054E-11
1656.000  1.035E-11
1656.200  8.256E-12
1656.400  8.665E-12
1656.600  9.125E-12
1656.800  8.562E-12
1657.000  8.245E-12
1657.200  8.687E-12
1657.400  8.609E-12
1657.600  9.208E-12
1657.800  8.250E-12
1658.000  8.744E-12
1658.200  8.168E-12
1658.400  9.155E-12
1658.600  8.343E-12
1658.800  9.574E-12
1659.000  9.548E-12
1659.200  9.948E-12
1659.400  8.634E-12
1659.600  8.898E-12
1659.800  9.358E-12
1660.000  9.528E-12
1660.200  8.644E-12
1660.400  9.015E-12
1660.600  9.382E-12
1660.800  8.563E-12
1661.000  8.185E-12
1661.200  9.283E-12
1661.400  8.825E-12
1661.600  8.901E-12
1661.800  7.142E-12
1662.000  8.943E-12
1662.200  8.899E-12
1662.400  8.042E-12
1662.600  8.518E-12
1662.800  9.395E-12
1663.000  8.699E-12
1663.200  8.255E-12
1663.400  9.210E-12
1663.600  9.014E-12
1663.800  9.149E-12
1664.000  9.021E-12
1664.200  8.761E-12
1664.400  8.201E-12
1664.600  9.132E-12
1664.800  7.987E-12
1665.000  9.037E-12
1665.200  8.914E-12
1665.400  9.367E-12
1665.600  9.208E-12
1665.800  9.158E-12
1666.000  9.115E-12
1666.200  8.848E-12
1666.400  9.378E-12
1666.600  8.703E-12
1666.800  8.753E-12
1667.000  7.864E-12
1667.200  8.491E-12
1667.400  9.305E-12
1667.600  9.344E-12
1667.800  9.062E-12
1668.000  8.620E-12
1668.200  7.678E-12
1668.400  9.262E-12
1668.600  9.643E-12
1668.800  9.392E-12
1669.000  8.853E-12
1669.200  9.153E-12
1669.400  7.667E-12
1669.600  7.650E-12
1669.800  8.927E-12
1670.000  8.481E-12
1670.200  8.469E-12
1670.400  8.346E-12
1670.600  9.351E-12
1670.800  7.335E-12
1671.000  8.238E-12
1671.200  9.648E-12
1671.400  9.334E-12
1671.600  8.977E-12
1671.800  8.527E-12
1672.000  8.896E-12
1672.200  8.788E-12
1672.400  9.171E-12
1672.600  7.592E-12
1672.800  8.035E-12
1673.000  7.558E-12
1673.200  8.157E-12
1673.400  7.824E-12
1673.600  7.940E-12
1673.800  8.197E-12
1674.000  9.435E-12
1674.200  9.435E-12
1674.400  9.171E-12
1674.600  7.179E-12
1674.800  9.046E-12
1675.000  9.352E-12
1675.200  8.861E-12
1675.400  8.955E-12
1675.600  7.753E-12
1675.800  8.217E-12
1676.000  8.546E-12
1676.200  7.672E-12
1676.400  9.266E-12
1676.600  8.222E-12
1676.800  8.428E-12
1677.000  7.879E-12
1677.200  9.045E-12
1677.400  8.714E-12
1677.600  8.894E-12
1677.800  8.792E-12
1678.000  9.245E-12
1678.200  9.687E-12
1678.400  9.361E-12
1678.600  9.707E-12
1678.800  9.269E-12
1679.000  8.974E-12
1679.200  6.698E-12
1679.400  8.433E-12
1679.600  8.643E-12
1679.800  8.988E-12
1680.000  8.923E-12
1680.200  9.483E-12
1680.400  9.332E-12
1680.600  9.018E-12
1680.800  8.905E-12
1681.000  8.860E-12
1681.200  8.244E-12
1681.400  7.106E-12
1681.600  9.012E-12
1681.800  9.311E-12
1682.000  8.701E-12
1682.200  9.283E-12
1682.400  8.928E-12
1682.600  9.143E-12
1682.800  8.561E-12
1683.000  8.994E-12
1683.200  8.733E-12
1683.400  8.203E-12
1683.600  7.018E-12
1683.800  9.211E-12
1684.000  8.536E-12
1684.200  8.529E-12
1684.400  9.126E-12
1684.600  8.882E-12
1684.800  9.156E-12
1685.000  8.630E-12
1685.200  9.593E-12
1685.400  9.414E-12
1685.600  9.208E-12
1685.800  8.629E-12
1686.000  8.009E-12
1686.200  8.135E-12
1686.400  8.999E-12
1686.600  8.439E-12
1686.800  8.882E-12
1687.000  8.708E-12
1687.200  9.529E-12
1687.400  9.477E-12
1687.600  7.960E-12
1687.800  8.119E-12
1688.000  8.793E-12
1688.200  8.726E-12
1688.400  9.194E-12
1688.600  8.602E-12
1688.800  8.886E-12
1689.000  8.235E-12
1689.200  8.564E-12
1689.400  8.844E-12
1689.600  8.894E-12
1689.800  8.445E-12
1690.000  8.587E-12
1690.200  8.065E-12
1690.400  7.376E-12
1690.600  7.830E-12
1690.800  8.538E-12
1691.000  7.784E-12
1691.200  8.796E-12
1691.400  9.417E-12
1691.600  9.275E-12
1691.800  8.024E-12
1692.000  9.031E-12
1692.200  8.851E-12
1692.400  8.451E-12
1692.600  6.685E-12
1692.800  7.684E-12
1693.000  8.688E-12
1693.200  9.188E-12
1693.400  9.242E-12
1693.600  8.235E-12
1693.800  9.092E-12
1694.000  8.573E-12
1694.200  8.997E-12
1694.400  8.195E-12
1694.600  8.419E-12
1694.800  9.176E-12
1695.000  9.117E-12
1695.200  8.544E-12
1695.400  8.329E-12
1695.600  7.969E-12
1695.800  8.530E-12
1696.000  8.203E-12
1696.200  8.121E-12
1696.400  8.362E-12
1696.600  8.262E-12
1696.800  8.262E-12
1697.000  8.746E-12
1697.200  9.065E-12
1697.400  8.920E-12
1697.600  9.113E-12
1697.800  9.124E-12
1698.000  7.678E-12
1698.200  7.225E-12
1698.400  8.094E-12
1698.600  8.045E-12
1698.800  7.683E-12
1699.000  7.347E-12
1699.200  8.584E-12
1699.400  8.659E-12
1699.600  8.394E-12
1699.800  8.830E-12
1700.000  8.939E-12
1700.200  8.703E-12
1700.400  7.977E-12
1700.600  8.679E-12
1700.800  8.650E-12
1701.000  8.018E-12
1701.200  8.722E-12
1701.400  7.125E-12
1701.600  8.608E-12
1701.800  8.657E-12
1702.000  7.749E-12
1702.200  7.738E-12
1702.400  8.126E-12
1702.600  7.815E-12
1702.800  7.161E-12
1703.000  8.351E-12
1703.200  8.330E-12
1703.400  8.510E-12
1703.600  8.177E-12
1703.800  8.500E-12
1704.000  7.808E-12
1704.200  8.705E-12
1704.400  8.965E-12
1704.600  8.296E-12
1704.800  8.440E-12
1705.000  8.289E-12
1705.200  8.647E-12
1705.400  9.090E-12
1705.600  8.970E-12
1705.800  8.912E-12
1706.000  7.705E-12
1706.200  7.884E-12
1706.400  9.093E-12
1706.600  8.129E-12
1706.800  8.919E-12
1707.000  8.900E-12
1707.200  8.311E-12
1707.400  7.214E-12
1707.600  7.897E-12
1707.800  7.089E-12
1708.000  8.825E-12
1708.200  8.999E-12
1708.400  8.991E-12
1708.600  6.813E-12
1708.800  8.870E-12
1709.000  8.172E-12
1709.200  8.740E-12
1709.400  8.906E-12
1709.600  7.660E-12
1709.800  6.552E-12
1710.000  8.115E-12
1710.200  8.867E-12
1710.400  7.394E-12
1710.600  8.382E-12
1710.800  8.741E-12
1711.000  7.153E-12
1711.200  7.228E-12
1711.400  7.553E-12
1711.600  7.447E-12
1711.800  7.508E-12
1712.000  9.096E-12
1712.200  9.102E-12
1712.400  9.015E-12
1712.600  8.801E-12
1712.800  7.301E-12
1713.000  8.581E-12
1713.200  8.584E-12
1713.400  8.377E-12
1713.600  7.735E-12
1713.800  7.757E-12
1714.000  7.838E-12
1714.200  8.958E-12
1714.400  8.464E-12
1714.600  8.420E-12
1714.800  7.966E-12
1715.000  8.226E-12
1715.200  7.883E-12
1715.400  8.347E-12
1715.600  8.964E-12
1715.800  8.061E-12
1716.000  8.753E-12
1716.200  8.669E-12
1716.400  8.435E-12
1716.600  8.410E-12
1716.800  8.289E-12
1717.000  7.588E-12
1717.200  8.209E-12
1717.400  7.718E-12
1717.600  8.022E-12
1717.800  8.314E-12
1718.000  7.704E-12
1718.200  6.966E-12
1718.400  5.672E-12
1718.600  8.038E-12
1718.800  8.341E-12
1719.000  8.718E-12
1719.200  8.906E-12
1719.400  7.343E-12
1719.600  8.640E-12
1719.800  8.519E-12
1720.000  7.906E-12
1720.200  8.393E-12
1720.400  7.912E-12
1720.600  6.860E-12
1720.800  5.885E-12
1721.000  5.270E-12
1721.200  6.171E-12
1721.400  7.613E-12
1721.600  7.677E-12
1721.800  7.769E-12
1722.000  7.735E-12
1722.200  7.017E-12
1722.400  6.987E-12
1722.600  7.427E-12
1722.800  5.929E-12
1723.000  8.290E-12
1723.200  8.124E-12
1723.400  8.060E-12
1723.600  7.588E-12
1723.800  7.128E-12
1724.000  6.704E-12
1724.200  7.765E-12
1724.400  8.034E-12
1724.600  7.312E-12
1724.800  7.506E-12
1725.000  7.086E-12
1725.200  7.664E-12
1725.400  8.267E-12
1725.600  7.904E-12
1725.800  8.573E-12
1726.000  8.553E-12
1726.200  8.186E-12
1726.400  8.065E-12
1726.600  7.489E-12
1726.800  8.311E-12
1727.000  8.515E-12
1727.200  8.270E-12
1727.400  8.097E-12
1727.600  7.635E-12
1727.800  8.850E-12
1728.000  8.482E-12
1728.200  6.844E-12
1728.400  8.730E-12
1728.600  7.750E-12
1728.800  7.625E-12
1729.000  7.904E-12
1729.200  7.856E-12
1729.400  8.769E-12
1729.600  8.970E-12
1729.800  7.533E-12
1730.000  8.680E-12
1730.200  8.506E-12
1730.400  7.176E-12
1730.600  7.186E-12
1730.800  6.534E-12
1731.000  7.978E-12
1731.200  7.811E-12
1731.400  7.590E-12
1731.600  7.965E-12
1731.800  8.139E-12
1732.000  8.229E-12
1732.200  8.658E-12
1732.400  8.542E-12
1732.600  7.893E-12
1732.800  7.648E-12
1733.000  6.882E-12
1733.200  8.333E-12
1733.400  8.685E-12
1733.600  8.577E-12
1733.800  7.683E-12
1734.000  7.535E-12
1734.200  8.629E-12
1734.400  8.476E-12
1734.600  8.556E-12
1734.800  7.407E-12
1735.000  8.621E-12
1735.200  8.176E-12
1735.400  8.064E-12
1735.600  7.972E-12
1735.800  8.723E-12
1736.000  7.835E-12
1736.200  7.991E-12
1736.400  7.166E-12
1736.600  8.367E-12
1736.800  8.596E-12
1737.000  8.823E-12
1737.200  8.759E-12
1737.400  8.692E-12
1737.600  8.744E-12
1737.800  8.770E-12
1738.000  8.653E-12
1738.200  7.425E-12
1738.400  7.917E-12
1738.600  7.140E-12
1738.800  7.099E-12
1739.000  8.250E-12
1739.200  8.314E-12
1739.400  8.490E-12
1739.600  8.457E-12
1739.800  6.881E-12
1740.000  8.128E-12
1740.200  8.094E-12
1740.400  8.628E-12
1740.600  8.694E-12
1740.800  6.559E-12
1741.000  6.817E-12
1741.200  7.985E-12
1741.400  7.312E-12
1741.600  7.769E-12
1741.800  8.013E-12
1742.000  5.838E-12
1742.200  7.761E-12
1742.400  8.528E-12
1742.600  8.538E-12
1742.800  6.844E-12
1743.000  6.936E-12
1743.200  6.676E-12
1743.400  7.503E-12
1743.600  8.288E-12
1743.800  8.296E-12
1744.000  8.219E-12
1744.200  8.142E-12
1744.400  7.670E-12
1744.600  8.462E-12
1744.800  8.376E-12
1745.000  7.618E-12
1745.200  7.673E-12
1745.400  8.229E-12
1745.600  6.469E-12
1745.800  8.374E-12
1746.000  8.591E-12
1746.200  7.911E-12
1746.400  8.043E-12
1746.600  7.732E-12
1746.800  6.537E-12
1747.000  5.939E-12
1747.200  5.180E-12
1747.400  8.213E-12
1747.600  8.180E-12
1747.800  6.390E-12
1748.000  7.582E-12
1748.200  6.647E-12
1748.400  6.959E-12
1748.600  8.208E-12
1748.800  8.111E-12
1749.000  7.699E-12
1749.200  7.946E-12
1749.400  7.972E-12
1749.600  7.690E-12
1749.800  7.795E-12
1750.000  7.670E-12
1750.200  7.659E-12
1750.400  7.946E-12
1750.600  8.350E-12
1750.800  8.371E-12
1751.000  8.001E-12
1751.200  6.558E-12
1751.400  7.934E-12
1751.600  7.657E-12
1751.800  6.328E-12
1752.000  7.371E-12
1752.200  7.822E-12
1752.400  7.151E-12
1752.600  8.590E-12
1752.800  8.439E-12
1753.000  6.163E-12
1753.200  7.855E-12
1753.400  7.222E-12
1753.600  8.084E-12
1753.800  8.252E-12
1754.000  8.468E-12
1754.200  8.612E-12
1754.400  8.133E-12
1754.600  8.396E-12
1754.800  6.423E-12
1755.000  7.620E-12
1755.200  7.632E-12
1755.400  8.034E-12
1755.600  6.236E-12
1755.800  8.117E-12
1756.000  8.314E-12
1756.200  8.544E-12
1756.400  8.023E-12
1756.600  8.230E-12
1756.800  7.943E-12
1757.000  7.221E-12
1757.200  8.147E-12
1757.400  7.985E-12
1757.600  7.554E-12
1757.800  7.932E-12
1758.000  7.548E-12
1758.200  7.327E-12
1758.400  7.460E-12
1758.600  7.332E-12
1758.800  7.540E-12
1759.000  7.764E-12
1759.200  7.945E-12
1759.400  7.986E-12
1759.600  8.269E-12
1759.800  8.230E-12
1760.000  8.348E-12
1760.200  7.417E-12
1760.400  3.010E-12
1760.600  6.845E-12
1760.800  6.110E-12
1761.000  7.721E-12
1761.200  7.600E-12
1761.400  7.846E-12
1761.600  8.004E-12
1761.800  8.229E-12
1762.000  8.058E-12
1762.200  7.815E-12
1762.400  7.558E-12
1762.600  8.156E-12
1762.800  7.186E-12
1763.000  7.172E-12
1763.200  8.387E-12
1763.400  8.368E-12
1763.600  6.970E-12
1763.800  7.178E-12
1764.000  8.014E-12
1764.200  8.173E-12
1764.400  7.538E-12
1764.600  7.355E-12
1764.800  7.228E-12
1765.000  6.776E-12
1765.200  8.275E-12
1765.400  8.364E-12
1765.600  8.237E-12
1765.800  8.017E-12
1766.000  8.073E-12
1766.200  7.549E-12
1766.400  7.715E-12
1766.600  8.347E-12
1766.800  8.313E-12
1767.000  7.596E-12
1767.200  7.955E-12
1767.400  8.272E-12
1767.600  8.390E-12
1767.800  7.822E-12
1768.000  7.997E-12
1768.200  7.965E-12
1768.400  7.719E-12
1768.600  7.978E-12
1768.800  7.067E-12
1769.000  7.354E-12
1769.200  6.957E-12
1769.400  8.017E-12
1769.600  6.740E-12
1769.800  7.921E-12
1770.000  7.024E-12
1770.200  6.284E-12
1770.400  7.877E-12
1770.600  7.512E-12
1770.800  8.151E-12
1771.000  7.450E-12
1771.200  7.618E-12
1771.400  8.030E-12
1771.600  8.069E-12
1771.800  7.745E-12
1772.000  5.916E-12
1772.200  6.611E-12
1772.400  6.971E-12
1772.600  6.951E-12
1772.800  7.685E-12
1773.000  7.782E-12
1773.200  7.281E-12
1773.400  7.553E-12
1773.600  6.242E-12
1773.800  6.941E-12
1774.000  7.899E-12
1774.200  7.609E-12
1774.400  7.331E-12
1774.600  7.325E-12
1774.800  7.781E-12
1775.000  7.691E-12
1775.200  7.710E-12
1775.400  6.689E-12
1775.600  6.857E-12
1775.800  6.537E-12
1776.000  5.261E-12
1776.200  7.894E-12
1776.400  7.818E-12
1776.600  7.532E-12
1776.800  7.691E-12
1777.000  7.703E-12
1777.200  6.721E-12
1777.400  7.968E-12
1777.600  7.987E-12
1777.800  7.424E-12
1778.000  7.457E-12
1778.200  7.857E-12
1778.400  7.888E-12
1778.600  7.126E-12
1778.800  6.924E-12
1779.000  7.154E-12
1779.200  7.469E-12
1779.400  7.180E-12
1779.600  7.867E-12
1779.800  7.623E-12
1780.000  6.701E-12
1780.200  8.015E-12
1780.400  7.975E-12
1780.600  7.639E-12
1780.800  7.696E-12
1781.000  7.557E-12
1781.200  6.915E-12
1781.400  7.516E-12
1781.600  8.024E-12
1781.800  7.962E-12
1782.000  7.171E-12
1782.200  7.256E-12
1782.400  8.073E-12
1782.600  8.003E-12
1782.800  7.286E-12
1783.000  6.374E-12
1783.200  8.039E-12
1783.400  8.128E-12
1783.600  7.804E-12
1783.800  7.110E-12
1784.000  7.049E-12
1784.200  7.988E-12
1784.400  7.620E-12
1784.600  6.679E-12
1784.800  6.523E-12
1785.000  7.631E-12
1785.200  7.799E-12
1785.400  8.028E-12
1785.600  7.869E-12
1785.800  7.846E-12
1786.000  7.529E-12
1786.200  7.626E-12
1786.400  7.684E-12
1786.600  7.541E-12
1786.800  6.534E-12
1787.000  5.269E-12
1787.200  7.495E-12
1787.400  6.731E-12
1787.600  7.561E-12
1787.800  7.675E-12
1788.000  6.954E-12
1788.200  6.415E-12
1788.400  6.363E-12
1788.600  5.934E-12
1788.800  6.929E-12
1789.000  6.034E-12
1789.200  6.611E-12
1789.400  6.393E-12
1789.600  7.605E-12
1789.800  7.631E-12
1790.000  6.556E-12
1790.200  6.879E-12
1790.400  7.039E-12
1790.600  7.699E-12
1790.800  7.184E-12
1791.000  6.386E-12
1791.200  5.891E-12
1791.400  7.216E-12
1791.600  7.032E-12
1791.800  7.768E-12
1792.000  7.733E-12
1792.200  7.857E-12
1792.400  7.202E-12
1792.600  5.629E-12
1792.800  7.566E-12
1793.000  6.745E-12
1793.200  7.276E-12
1793.400  7.389E-12
1793.600  7.079E-12
1793.800  6.445E-12
1794.000  7.329E-12
1794.200  7.727E-12
1794.400  7.803E-12
1794.600  7.013E-12
1794.800  6.911E-12
1795.000  7.402E-12
1795.200  7.516E-12
1795.400  7.767E-12
1795.600  7.489E-12
1795.800  7.469E-12
1796.000  7.484E-12
1796.200  7.680E-12
1796.400  7.726E-12
1796.600  7.850E-12
1796.800  7.568E-12
1797.000  6.842E-12
1797.200  7.206E-12
1797.400  7.843E-12
1797.600  8.041E-12
1797.800  6.492E-12
1798.000  5.698E-12
1798.200  6.604E-12
1798.400  6.988E-12
1798.600  7.699E-12
1798.800  7.535E-12
1799.000  7.421E-12
1799.200  7.499E-12
1799.400  7.483E-12
1799.600  7.867E-12
1799.800  7.828E-12
1800.000  7.368E-12
1800.200  7.811E-12
1800.400  7.766E-12
1800.600  7.864E-12
1800.800  7.980E-12
1801.000  7.640E-12
1801.200  8.043E-12
1801.400  7.669E-12
1801.600  7.292E-12
1801.800  7.669E-12
1802.000  7.837E-12
1802.200  7.878E-12
1802.400  7.846E-12
1802.600  6.649E-12
1802.800  7.170E-12
1803.000  7.218E-12
1803.200  7.114E-12
1803.400  7.463E-12
1803.600  7.543E-12
1803.800  7.592E-12
1804.000  7.479E-12
1804.200  7.540E-12
1804.400  6.783E-12
1804.600  7.368E-12
1804.800  7.393E-12
1805.000  7.518E-12
1805.200  7.438E-12
1805.400  6.819E-12
1805.600  7.249E-12
1805.800  7.682E-12
1806.000  7.743E-12
1806.200  7.647E-12
1806.400  7.482E-12
1806.600  7.449E-12
1806.800  7.719E-12
1807.000  7.272E-12
1807.200  5.926E-12
1807.400  7.664E-12
1807.600  7.259E-12
1807.800  7.359E-12
1808.000  6.964E-12
1808.200  6.962E-12
1808.400  7.241E-12
1808.600  7.330E-12
1808.800  7.536E-12
1809.000  7.500E-12
1809.200  6.927E-12
1809.400  7.824E-12
1809.600  7.834E-12
1809.800  7.222E-12
1810.000  7.342E-12
1810.200  7.510E-12
1810.400  7.317E-12
1810.600  7.310E-12
1810.800  7.312E-12
1811.000  6.942E-12
1811.200  6.593E-12
1811.400  6.374E-12
1811.600  6.479E-12
1811.800  6.335E-12
1812.000  6.820E-12
1812.200  6.679E-12
1812.400  6.635E-12
1812.600  6.941E-12
1812.800  5.868E-12
1813.000  6.170E-12
1813.200  6.706E-12
1813.400  7.497E-12
1813.600  7.493E-12
1813.800  7.047E-12
1814.000  7.022E-12
1814.200  7.042E-12
1814.400  7.081E-12
1814.600  6.816E-12
1814.800  7.151E-12
1815.000  7.157E-12
1815.200  5.863E-12
1815.400  6.885E-12
1815.600  6.730E-12
1815.800  6.620E-12
1816.000  6.261E-12
1816.200  6.933E-12
1816.400  7.503E-12
1816.600  7.417E-12
1816.800  7.417E-12
1817.000  7.407E-12
1817.200  7.407E-12
1817.400  7.372E-12
1817.600  6.271E-12
1817.800  7.491E-12
1818.000  7.707E-12
1818.200  7.595E-12
1818.400  7.324E-12
1818.600  7.141E-12
1818.800  7.700E-12
1819.000  7.266E-12
1819.200  6.858E-12
1819.400  5.472E-12
1819.600  6.348E-12
1819.800  6.010E-12
1820.000  6.491E-12
1820.200  6.971E-12
1820.400  6.859E-12
1820.600  7.280E-12
1820.800  7.257E-12
1821.000  6.711E-12
1821.200  6.630E-12
1821.400  7.264E-12
1821.600  7.237E-12
1821.800  5.746E-12
1822.000  6.428E-12
1822.200  6.505E-12
1822.400  7.133E-12
1822.600  6.933E-12
1822.800  7.303E-12
1823.000  5.151E-12
1823.200  7.408E-12
1823.400  6.574E-12
1823.600  6.446E-12
1823.800  6.946E-12
1824.000  7.608E-12
1824.200  7.658E-12
1824.400  7.513E-12
1824.600  7.385E-12
1824.800  6.737E-12
1825.000  6.348E-12
1825.200  6.695E-12
1825.400  6.406E-12
1825.600  7.174E-12
1825.800  6.753E-12
1826.000  6.971E-12
1826.200  5.844E-12
1826.400  6.143E-12
1826.600  7.527E-12
1826.800  7.565E-12
1827.000  6.558E-12
1827.200  6.920E-12
1827.400  6.203E-12
1827.600  7.300E-12
1827.800  7.258E-12
1828.000  7.075E-12
1828.200  7.075E-12
1828.400  7.223E-12
1828.600  7.179E-12
1828.800  6.891E-12
1829.000  7.288E-12
1829.200  7.023E-12
1829.400  7.060E-12
1829.600  6.569E-12
1829.800  6.232E-12
1830.000  5.346E-12
1830.200  6.572E-12
1830.400  6.592E-12
1830.600  6.031E-12
1830.800  6.254E-12
1831.000  6.969E-12
1831.200  7.064E-12
1831.400  6.865E-12
1831.600  7.181E-12
1831.800  7.278E-12
1832.000  7.103E-12
1832.200  6.891E-12
1832.400  7.443E-12
1832.600  6.769E-12
1832.800  7.439E-12
1833.000  7.053E-12
1833.200  6.873E-12
1833.400  7.164E-12
1833.600  6.580E-12
1833.800  6.823E-12
1834.000  7.025E-12
1834.200  7.207E-12
1834.400  6.953E-12
1834.600  7.161E-12
1834.800  6.989E-12
1835.000  7.025E-12
1835.200  7.202E-12
1835.400  7.053E-12
1835.600  6.822E-12
1835.800  6.788E-12
1836.000  6.812E-12
1836.200  6.428E-12
1836.400  7.122E-12
1836.600  7.291E-12
1836.800  6.764E-12
1837.000  6.792E-12
1837.200  7.096E-12
1837.400  6.471E-12
1837.600  5.755E-12
1837.800  5.952E-12
1838.000  6.798E-12
1838.200  6.830E-12
1838.400  7.038E-12
1838.600  6.649E-12
1838.800  6.791E-12
1839.000  6.842E-12
1839.200  6.748E-12
1839.400  6.555E-12
1839.600  6.848E-12
1839.800  7.176E-12
1840.000  7.044E-12
1840.200  6.382E-12
1840.400  6.316E-12
1840.600  7.226E-12
1840.800  7.328E-12
1841.000  7.331E-12
1841.200  7.478E-12
1841.400  6.004E-12
1841.600  6.350E-12
1841.800  6.332E-12
1842.000  6.565E-12
1842.200  6.875E-12
1842.400  6.800E-12
1842.600  6.616E-12
1842.800  6.830E-12
1843.000  5.775E-12
1843.200  6.055E-12
1843.400  5.213E-12
1843.600  6.483E-12
1843.800  6.897E-12
1844.000  6.723E-12
1844.200  6.742E-12
1844.400  6.602E-12
1844.600  5.925E-12
1844.800  6.765E-12
1845.000  5.107E-12
1845.200  5.863E-12
1845.400  6.019E-12
1845.600  6.221E-12
1845.800  6.617E-12
1846.000  6.267E-12
1846.200  6.108E-12
1846.400  5.698E-12
1846.600  6.955E-12
1846.800  7.011E-12
1847.000  6.885E-12
1847.200  6.898E-12
1847.400  6.883E-12
1847.600  6.482E-12
1847.800  6.325E-12
1848.000  6.289E-12
1848.200  7.029E-12
1848.400  7.003E-12
1848.600  7.018E-12
1848.800  6.821E-12
1849.000  5.728E-12
1849.200  5.548E-12
1849.400  4.021E-12
1849.600  5.812E-12
1849.800  6.633E-12
1850.000  6.133E-12
1850.200  6.381E-12
1850.400  6.739E-12
1850.600  5.638E-12
1850.800  6.477E-12
1851.000  6.833E-12
1851.200  6.750E-12
1851.400  6.698E-12
1851.600  6.596E-12
1851.800  6.415E-12
1852.000  6.331E-12
1852.200  6.948E-12
1852.400  6.619E-12
1852.600  6.257E-12
1852.800  4.904E-12
1853.000  7.106E-12
1853.200  7.092E-12
1853.400  6.548E-12
1853.600  6.913E-12
1853.800  6.747E-12
1854.000  6.835E-12
1854.200  6.196E-12
1854.400  5.707E-12
1854.600  5.596E-12
1854.800  3.360E-12
1855.000  6.100E-12
1855.200  6.622E-12
1855.400  5.477E-12
1855.600  6.469E-12
1855.800  6.751E-12
1856.000  7.098E-12
1856.200  6.983E-12
1856.400  6.962E-12
1856.600  6.638E-12
1856.800  6.951E-12
1857.000  6.963E-12
1857.200  7.050E-12
1857.400  7.193E-12
1857.600  7.144E-12
1857.800  6.964E-12
1858.000  6.091E-12
1858.200  6.908E-12
1858.400  6.886E-12
1858.600  5.165E-12
1858.800  6.991E-12
1859.000  7.118E-12
1859.200  6.500E-12
1859.400  6.493E-12
1859.600  6.220E-12
1859.800  5.608E-12
1860.000  6.520E-12
1860.200  6.748E-12
1860.400  6.641E-12
1860.600  6.634E-12
1860.800  6.764E-12
1861.000  7.009E-12
1861.200  7.045E-12
1861.400  7.080E-12
1861.600  6.376E-12
1861.800  7.004E-12
1862.000  7.064E-12
1862.200  6.917E-12
1862.400  6.329E-12
1862.600  5.909E-12
1862.800  5.257E-12
1863.000  6.044E-12
1863.200  6.446E-12
1863.400  6.039E-12
1863.600  6.543E-12
1863.800  6.240E-12
1864.000  5.936E-12
1864.200  6.923E-12
1864.400  6.960E-12
1864.600  6.464E-12
1864.800  6.524E-12
1865.000  6.994E-12
1865.200  6.365E-12
1865.400  6.084E-12
1865.600  5.751E-12
1865.800  6.887E-12
1866.000  6.743E-12
1866.200  5.506E-12
1866.400  6.226E-12
1866.600  6.623E-12
1866.800  6.793E-12
1867.000  6.419E-12
1867.200  6.675E-12
1867.400  7.041E-12
1867.600  6.785E-12
1867.800  6.745E-12
1868.000  6.709E-12
1868.200  6.421E-12
1868.400  7.096E-12
1868.600  6.831E-12
1868.800  6.804E-12
1869.000  6.955E-12
1869.200  6.802E-12
1869.400  6.963E-12
1869.600  6.558E-12
1869.800  6.027E-12
1870.000  6.604E-12
1870.200  6.687E-12
1870.400  6.901E-12
1870.600  6.555E-12
1870.800  6.629E-12
1871.000  6.259E-12
1871.200  5.387E-12
1871.400  5.755E-12
1871.600  6.713E-12
1871.800  6.525E-12
1872.000  6.392E-12
1872.200  5.946E-12
1872.400  6.165E-12
1872.600  6.406E-12
1872.800  6.619E-12
1873.000  6.335E-12
1873.200  6.496E-12
1873.400  6.436E-12
1873.600  6.568E-12
1873.800  6.638E-12
1874.000  6.078E-12
1874.200  6.191E-12
1874.400  6.478E-12
1874.600  6.917E-12
1874.800  6.774E-12
1875.000  6.594E-12
1875.200  6.877E-12
1875.400  6.857E-12
1875.600  6.845E-12
1875.800  6.825E-12
1876.000  6.333E-12
1876.200  6.499E-12
1876.400  6.627E-12
1876.600  6.731E-12
1876.800  6.820E-12
1877.000  6.884E-12
1877.200  6.876E-12
1877.400  6.686E-12
1877.600  6.182E-12
1877.800  6.518E-12
1878.000  5.941E-12
1878.200  6.774E-12
1878.400  6.634E-12
1878.600  6.711E-12
1878.800  6.771E-12
1879.000  6.035E-12
1879.200  6.036E-12
1879.400  6.713E-12
1879.600  6.768E-12
1879.800  6.790E-12
1880.000  6.607E-12
1880.200  6.688E-12
1880.400  6.265E-12
1880.600  4.835E-12
1880.800  6.123E-12
1881.000  5.915E-12
1881.200  6.023E-12
1881.400  5.959E-12
1881.600  5.565E-12
1881.800  5.518E-12
1882.000  5.597E-12
1882.200  6.343E-12
1882.400  6.664E-12
1882.600  6.757E-12
1882.800  6.692E-12
1883.000  5.222E-12
1883.200  5.186E-12
1883.400  6.396E-12
1883.600  6.740E-12
1883.800  6.339E-12
1884.000  6.964E-12
1884.200  6.606E-12
1884.400  6.349E-12
1884.600  5.236E-12
1884.800  5.577E-12
1885.000  5.235E-12
1885.200  6.160E-12
1885.400  6.375E-12
1885.600  6.580E-12
1885.800  6.523E-12
1886.000  6.444E-12
1886.200  6.673E-12
1886.400  6.528E-12
1886.600  5.404E-12
1886.800  6.175E-12
1887.000  6.255E-12
1887.200  5.469E-12
1887.400  5.641E-12
1887.600  5.946E-12
1887.800  6.524E-12
1888.000  6.618E-12
1888.200  6.593E-12
1888.400  6.220E-12
1888.600  6.308E-12
1888.800  6.653E-12
1889.000  6.602E-12
1889.200  6.434E-12
1889.400  5.906E-12
1889.600  6.449E-12
1889.800  6.752E-12
1890.000  6.773E-12
1890.200  6.698E-12
1890.400  6.691E-12
1890.600  6.136E-12
1890.800  5.283E-12
1891.000  5.653E-12
1891.200  5.084E-12
1891.400  5.458E-12
1891.600  6.010E-12
1891.800  6.013E-12
1892.000  3.536E-12
1892.200  3.642E-12
1892.400  4.761E-12
1892.600  5.646E-12
1892.800  5.651E-12
1893.000  5.878E-12
1893.200  6.221E-12
1893.400  6.481E-12
1893.600  6.447E-12
1893.800  6.306E-12
1894.000  5.662E-12
1894.200  5.812E-12
1894.400  5.987E-12
1894.600  6.595E-12
1894.800  6.588E-12
1895.000  5.757E-12
1895.200  5.773E-12
1895.400  3.982E-12
1895.600  3.729E-12
1895.800  5.672E-12
1896.000  6.238E-12
1896.200  6.133E-12
1896.400  6.477E-12
1896.600  6.486E-12
1896.800  5.159E-12
1897.000  5.368E-12
1897.200  6.252E-12
1897.400  6.309E-12
1897.600  6.624E-12
1897.800  6.728E-12
1898.000  6.635E-12
1898.200  6.487E-12
1898.400  6.603E-12
1898.600  6.660E-12
1898.800  6.446E-12
1899.000  6.173E-12
1899.200  5.829E-12
1899.400  6.191E-12
1899.600  6.557E-12
1899.800  6.389E-12
1900.000  6.606E-12
1900.200  6.636E-12
1900.400  6.723E-12
1900.600  5.853E-12
1900.800  6.328E-12
1901.000  6.352E-12
1901.200  5.145E-12
1901.400  4.482E-12
1901.600  6.397E-12
1901.800  6.480E-12
1902.000  6.575E-12
1902.200  6.100E-12
1902.400  5.729E-12
1902.600  6.221E-12
1902.800  6.365E-12
1903.000  6.321E-12
1903.200  5.576E-12
1903.400  6.623E-12
1903.600  6.263E-12
1903.800  6.019E-12
1904.000  6.309E-12
1904.200  6.250E-12
1904.400  5.378E-12
1904.600  6.502E-12
1904.800  6.223E-12
1905.000  6.544E-12
1905.200  5.946E-12
1905.400  6.452E-12
1905.600  6.558E-12
1905.800  5.869E-12
1906.000  6.381E-12
1906.200  6.381E-12
1906.400  5.952E-12
1906.600  6.338E-12
1906.800  5.521E-12
1907.000  6.153E-12
1907.200  6.230E-12
1907.400  6.167E-12
1907.600  4.369E-12
1907.800  5.914E-12
1908.000  6.429E-12
1908.200  6.270E-12
1908.400  6.550E-12
1908.600  6.542E-12
1908.800  6.500E-12
1909.000  6.314E-12
1909.200  6.417E-12
1909.400  6.345E-12
1909.600  6.108E-12
1909.800  5.132E-12
1910.000  6.110E-12
1910.200  5.089E-12
1910.400  5.087E-12
1910.600  5.717E-12
1910.800  5.867E-12
1911.000  6.406E-12
1911.200  6.026E-12
1911.400  5.890E-12
1911.600  6.165E-12
1911.800  6.259E-12
1912.000  6.306E-12
1912.200  6.506E-12
1912.400  6.482E-12
1912.600  6.231E-12
1912.800  6.246E-12
1913.000  6.196E-12
1913.200  6.320E-12
1913.400  5.832E-12
1913.600  5.755E-12
1913.800  5.278E-12
1914.000  4.086E-12
1914.200  5.759E-12
1914.400  6.061E-12
1914.600  6.058E-12
1914.800  5.945E-12
1915.000  5.411E-12
1915.200  5.541E-12
1915.400  5.526E-12
1915.600  5.835E-12
1915.800  5.454E-12
1916.000  6.115E-12
1916.200  6.289E-12
1916.400  6.161E-12
1916.600  6.496E-12
1916.800  6.491E-12
1917.000  5.955E-12
1917.200  5.442E-12
1917.400  3.609E-12
1917.600  4.972E-12
1917.800  5.953E-12
1918.000  5.726E-12
1918.200  5.762E-12
1918.400  4.796E-12
1918.600  6.076E-12
1918.800  6.399E-12
1919.000  5.108E-12
1919.200  5.440E-12
1919.400  5.948E-12
1919.600  6.195E-12
1919.800  6.235E-12
1920.000  6.195E-12
1920.200  4.643E-12
1920.400  6.197E-12
1920.600  6.251E-12
1920.800  6.340E-12
1921.000  6.400E-12
1921.200  5.325E-12
1921.400  6.248E-12
1921.600  6.384E-12
1921.800  6.373E-12
1922.000  5.414E-12
1922.200  6.354E-12
1922.400  6.306E-12
1922.600  6.015E-12
1922.800  4.256E-12
1923.000  5.098E-12
1923.200  5.629E-12
1923.400  5.768E-12
1923.600  6.275E-12
1923.800  6.039E-12
1924.000  5.587E-12
1924.200  6.229E-12
1924.400  6.041E-12
1924.600  6.106E-12
1924.800  6.220E-12
1925.000  6.418E-12
1925.200  6.275E-12
1925.400  5.614E-12
1925.600  6.298E-12
1925.800  5.964E-12
1926.000  4.556E-12
1926.200  4.789E-12
1926.400  5.518E-12
1926.600  5.789E-12
1926.800  5.578E-12
1927.000  5.812E-12
1927.200  5.793E-12
1927.400  5.102E-12
1927.600  5.898E-12
1927.800  5.523E-12
1928.000  5.686E-12
1928.200  2.940E-12
1928.400  4.928E-12
1928.600  4.030E-12
1928.800  4.201E-12
1929.000  5.983E-12
1929.200  6.290E-12
1929.400  4.872E-12
1929.600  5.088E-12
1929.800  5.006E-12
1930.000  5.580E-12
1930.200  5.242E-12
1930.400  4.867E-12
1930.600  6.128E-12
1930.800  6.197E-12
1931.000  5.393E-12
1931.200  5.428E-12
1931.400  4.769E-12
1931.600  5.566E-12
1931.800  6.147E-12
1932.000  6.286E-12
1932.200  6.294E-12
1932.400  6.102E-12
1932.600  6.221E-12
1932.800  5.582E-12
1933.000  6.280E-12
1933.200  6.256E-12
1933.400  4.968E-12
1933.600  6.214E-12
1933.800  6.376E-12
1934.000  6.372E-12
1934.200  6.080E-12
1934.400  6.289E-12
1934.600  6.081E-12
1934.800  5.694E-12
1935.000  5.937E-12
1935.200  6.155E-12
1935.400  6.030E-12
1935.600  6.073E-12
1935.800  5.640E-12
1936.000  5.053E-12
1936.200  5.118E-12
1936.400  5.652E-12
1936.600  5.573E-12
1936.800  4.992E-12
1937.000  3.952E-12
1937.200  5.107E-12
1937.400  5.296E-12
1937.600  5.664E-12
1937.800  6.173E-12
1938.000  6.079E-12
1938.200  6.131E-12
1938.400  6.384E-12
1938.600  6.352E-12
1938.800  4.169E-12
1939.000  4.986E-12
1939.200  6.109E-12
1939.400  5.514E-12
1939.600  5.666E-12
1939.800  6.052E-12
1940.000  5.108E-12
1940.200  5.423E-12
1940.400  5.812E-12
1940.600  4.827E-12
1940.800  5.543E-12
1941.000  5.924E-12
1941.200  5.950E-12
1941.400  5.013E-12
1941.600  4.659E-12
1941.800  6.125E-12
1942.000  6.224E-12
1942.200  6.133E-12
1942.400  4.943E-12
1942.600  5.716E-12
1942.800  5.503E-12
1943.000  6.032E-12
1943.200  5.350E-12
1943.400  4.978E-12
1943.600  5.320E-12
1943.800  5.818E-12
1944.000  5.957E-12
1944.200  5.957E-12
1944.400  5.971E-12
1944.600  5.830E-12
1944.800  6.154E-12
1945.000  6.085E-12
1945.200  5.834E-12
1945.400  5.968E-12
1945.600  6.053E-12
1945.800  6.081E-12
1946.000  6.181E-12
1946.200  6.227E-12
1946.400  5.976E-12
1946.600  6.048E-12
1946.800  5.803E-12
1947.000  5.867E-12
1947.200  6.283E-12
1947.400  5.194E-12
1947.600  5.915E-12
1947.800  5.921E-12
1948.000  5.658E-12
1948.200  5.133E-12
1948.400  5.355E-12
1948.600  5.085E-12
1948.800  5.274E-12
1949.000  5.345E-12
1949.200  5.338E-12
1949.400  4.236E-12
1949.600  4.584E-12
1949.800  5.783E-12
1950.000  6.013E-12
1950.200  5.853E-12
1950.400  5.746E-12
1950.600  5.686E-12
1950.800  5.678E-12
1951.000  5.023E-12
1951.200  5.660E-12
1951.400  4.982E-12
1951.600  6.054E-12
1951.800  6.070E-12
1952.000  5.828E-12
1952.200  5.122E-12
1952.400  3.250E-12
1952.600  3.910E-12
1952.800  6.116E-12
1953.000  6.123E-12
1953.200  5.104E-12
1953.400  3.251E-12
1953.600  5.771E-12
1953.800  5.645E-12
1954.000  4.934E-12
1954.200  4.797E-12
1954.400  5.863E-12
1954.600  5.814E-12
1954.800  3.868E-12
1955.000  5.742E-12
1955.200  6.170E-12
1955.400  6.088E-12
1955.600  5.724E-12
1955.800  4.850E-12
1956.000  4.270E-12
1956.200  5.930E-12
1956.400  5.687E-12
1956.600  5.459E-12
1956.800  5.936E-12
1957.000  5.031E-12
1957.200  5.485E-12
1957.400  5.068E-12
1957.600  5.759E-12
1957.800  5.970E-12
1958.000  5.777E-12
1958.200  5.982E-12
1958.400  5.319E-12
1958.600  4.053E-12
1958.800  5.769E-12
1959.000  5.399E-12
1959.200  5.077E-12
1959.400  4.435E-12
1959.600  5.570E-12
1959.800  5.883E-12
1960.000  5.868E-12
1960.200  4.569E-12
1960.400  5.808E-12
1960.600  6.020E-12
1960.800  6.019E-12
1961.000  5.057E-12
1961.200  5.057E-12
1961.400  4.891E-12
1961.600  5.655E-12
1961.800  5.789E-12
1962.000  5.691E-12
1962.200  5.514E-12
1962.400  5.970E-12
1962.600  5.953E-12
1962.800  5.020E-12
1963.000  4.908E-12
1963.200  5.333E-12
1963.400  5.577E-12
1963.600  5.306E-12
1963.800  5.561E-12
1964.000  4.857E-12
1964.200  3.084E-12
1964.400  5.585E-12
1964.600  5.568E-12
1964.800  5.421E-12
1965.000  5.748E-12
1965.200  5.853E-12
1965.400  5.470E-12
1965.600  6.043E-12
1965.800  6.050E-12
1966.000  5.756E-12
1966.200  5.632E-12
1966.400  6.093E-12
1966.600  5.932E-12
1966.800  5.854E-12
1967.000  5.838E-12
1967.200  5.235E-12
1967.400  5.795E-12
1967.600  5.817E-12
1967.800  5.667E-12
1968.000  5.588E-12
1968.200  5.766E-12
1968.400  5.559E-12
1968.600  5.052E-12
1968.800  5.757E-12
1969.000  5.967E-12
1969.200  5.945E-12
1969.400  5.860E-12
1969.600  5.260E-12
1969.800  5.256E-12
1970.000  5.232E-12
1970.200  5.410E-12
1970.400  5.884E-12
1970.600  5.819E-12
1970.800  5.727E-12
1971.000  5.886E-12
1971.200  5.823E-12
1971.400  5.256E-12
1971.600  5.952E-12
1971.800  5.904E-12
1972.000  5.222E-12
1972.200  5.222E-12
1972.400  5.508E-12
1972.600  5.015E-12
1972.800  5.444E-12
1973.000  5.936E-12
1973.200  5.957E-12
1973.400  5.811E-12
1973.600  5.524E-12
1973.800  5.956E-12
1974.000  5.947E-12
1974.200  5.808E-12
1974.400  5.795E-12
1974.600  5.732E-12
1974.800  5.153E-12
1975.000  5.958E-12
1975.200  5.947E-12
1975.400  5.837E-12
1975.600  5.355E-12
1975.800  5.591E-12
1976.000  5.035E-12
1976.200  5.647E-12
1976.400  5.723E-12
1976.600  5.798E-12
1976.800  5.808E-12
1977.000  5.509E-12
1977.200  5.538E-12
1977.400  5.791E-12
1977.600  5.754E-12
1977.800  5.681E-12
1978.000  5.795E-12
1978.200  5.882E-12
1978.400  5.030E-12
1978.600  5.452E-12
1978.800  5.715E-12
1979.000  5.028E-12
1979.200  5.752E-12
1979.400  5.759E-12
1979.600  5.712E-12
1979.800  5.659E-12
1980.000  5.631E-12
1980.200  4.636E-12
1980.400  5.587E-12
1980.600  5.823E-12
1980.800  5.812E-12
1981.000  5.930E-12
1981.200  5.940E-12
1981.400  5.596E-12
1981.600  5.712E-12
1981.800  5.828E-12
1982.000  5.735E-12
1982.200  5.399E-12
1982.400  5.719E-12
1982.600  5.125E-12
1982.800  5.351E-12
1983.000  5.693E-12
1983.200  5.735E-12
1983.400  5.774E-12
1983.600  4.634E-12
1983.800  5.791E-12
1984.000  5.460E-12
1984.200  5.193E-12
1984.400  4.813E-12
1984.600  5.582E-12
1984.800  5.790E-12
1985.000  5.726E-12
1985.200  5.267E-12
1985.400  5.271E-12
1985.600  5.553E-12
1985.800  5.574E-12
1986.000  5.837E-12
1986.200  5.555E-12
1986.400  5.607E-12
1986.600  5.633E-12
1986.800  5.318E-12
1987.000  5.273E-12
1987.200  5.311E-12
1987.400  5.058E-12
1987.600  4.288E-12
1987.800  4.725E-12
1988.000  5.479E-12
1988.200  5.774E-12
1988.400  5.667E-12
1988.600  5.478E-12
1988.800  5.672E-12
1989.000  5.584E-12
1989.200  4.970E-12
1989.400  5.165E-12
1989.600  4.954E-12
1989.800  5.418E-12
1990.000  5.201E-12
1990.200  5.272E-12
1990.400  5.464E-12
1990.600  5.059E-12
1990.800  5.569E-12
1991.000  5.684E-12
1991.200  5.272E-12
1991.400  5.279E-12
1991.600  4.430E-12
1991.800  5.460E-12
1992.000  4.629E-12
1992.200  4.590E-12
1992.400  4.910E-12
1992.600  4.740E-12
1992.800  4.045E-12
1993.000  5.239E-12
1993.200  4.839E-12
1993.400  5.420E-12
1993.600  5.546E-12
1993.800  5.713E-12
1994.000  5.119E-12
1994.200  4.189E-12
1994.400  5.564E-12
1994.600  5.747E-12
1994.800  5.408E-12
1995.000  5.240E-12
1995.200  5.169E-12
1995.400  4.746E-12
1995.600  5.315E-12
1995.800  5.325E-12
1996.000  5.606E-12
1996.200  5.564E-12
1996.400  4.656E-12
1996.600  5.640E-12
1996.800  5.556E-12
1997.000  5.083E-12
1997.200  5.463E-12
1997.400  5.410E-12
1997.600  5.677E-12
1997.800  5.534E-12
1998.000  5.341E-12
1998.200  5.592E-12
1998.400  5.815E-12
1998.600  5.795E-12
1998.800  5.024E-12
1999.000  5.037E-12
1999.200  5.499E-12
1999.400  5.156E-12
1999.600  5.017E-12
1999.800  5.358E-12
2000.000  4.721E-12
2000.200  4.686E-12
2000.400  5.597E-12
2000.600  5.581E-12
2000.800  5.564E-12
2001.000  5.479E-12
2001.200  5.278E-12
2001.400  5.373E-12
2001.600  5.443E-12
2001.800  4.309E-12
2002.000  4.128E-12
2002.200  5.485E-12
2002.400  5.368E-12
2002.600  5.175E-12
2002.800  5.536E-12
2003.000  5.162E-12
2003.200  4.607E-12
2003.400  5.715E-12
2003.600  5.668E-12
2003.800  5.703E-12
2004.000  5.546E-12
2004.200  5.446E-12
2004.400  5.593E-12
2004.600  5.560E-12
2004.800  5.642E-12
2005.000  5.696E-12
2005.200  5.696E-12
2005.400  5.665E-12
2005.600  5.063E-12
2005.800  5.539E-12
2006.000  5.517E-12
2006.200  4.677E-12
2006.400  5.382E-12
2006.600  5.560E-12
2006.800  5.461E-12
2007.000  5.072E-12
2007.200  5.169E-12
2007.400  5.100E-12
2007.600  5.311E-12
2007.800  5.513E-12
2008.000  5.194E-12
2008.200  5.314E-12
2008.400  5.313E-12
2008.600  5.522E-12
2008.800  5.604E-12
2009.000  5.512E-12
2009.200  5.131E-12
2009.400  5.573E-12
2009.600  5.654E-12
2009.800  5.451E-12
2010.000  5.489E-12
2010.200  5.506E-12
2010.400  5.629E-12
2010.600  5.400E-12
2010.800  5.500E-12
2011.000  5.221E-12
2011.200  5.142E-12
2011.400  4.399E-12
2011.600  5.126E-12
2011.800  4.962E-12
2012.000  4.993E-12
2012.200  4.606E-12
2012.400  5.081E-12
2012.600  5.266E-12
2012.800  5.355E-12
2013.000  4.869E-12
2013.200  5.277E-12
2013.400  5.517E-12
2013.600  5.608E-12
2013.800  5.423E-12
2014.000  5.429E-12
2014.200  5.307E-12
2014.400  5.299E-12
2014.600  5.464E-12
2014.800  5.444E-12
2015.000  5.430E-12
2015.200  5.020E-12
2015.400  3.946E-12
2015.600  4.965E-12
2015.800  4.913E-12
2016.000  5.173E-12
2016.200  5.397E-12
2016.400  5.294E-12
2016.600  5.443E-12
2016.800  5.440E-12
2017.000  5.400E-12
2017.200  5.400E-12
2017.400  4.972E-12
2017.600  5.444E-12
2017.800  5.305E-12
2018.000  5.391E-12
2018.200  5.403E-12
2018.400  5.393E-12
2018.600  5.479E-12
2018.800  5.433E-12
2019.000  4.485E-12
2019.200  4.752E-12
2019.400  5.137E-12
2019.600  5.378E-12
2019.800  5.471E-12
2020.000  5.475E-12
2020.200  5.459E-12
2020.400  5.504E-12
2020.600  5.561E-12
2020.800  5.408E-12
2021.000  5.459E-12
2021.200  5.384E-12
2021.400  5.546E-12
2021.600  5.520E-12
2021.800  4.986E-12
2022.000  5.285E-12
2022.200  5.344E-12
2022.400  5.344E-12
2022.600  5.389E-12
2022.800  4.262E-12
2023.000  5.446E-12
2023.200  5.501E-12
2023.400  5.414E-12
2023.600  5.509E-12
2023.800  5.492E-12
2024.000  5.309E-12
2024.200  5.428E-12
2024.400  5.433E-12
2024.600  5.438E-12
2024.800  5.537E-12
2025.000  5.542E-12
2025.200  5.379E-12
2025.400  5.146E-12
2025.600  5.348E-12
2025.800  5.236E-12
2026.000  4.340E-12
2026.200  4.366E-12
2026.400  4.937E-12
2026.600  4.891E-12
2026.800  5.179E-12
2027.000  5.396E-12
2027.200  5.362E-12
2027.400  5.415E-12
2027.600  4.710E-12
2027.800  4.908E-12
2028.000  5.161E-12
2028.200  5.172E-12
2028.400  5.096E-12
2028.600  4.354E-12
2028.800  3.992E-12
2029.000  5.170E-12
2029.200  5.060E-12
2029.400  5.430E-12
2029.600  5.397E-12
2029.800  5.267E-12
2030.000  5.213E-12
2030.200  5.081E-12
2030.400  5.431E-12
2030.600  5.504E-12
2030.800  5.421E-12
2031.000  5.334E-12
2031.200  4.691E-12
2031.400  4.659E-12
2031.600  5.328E-12
2031.800  5.326E-12
2032.000  5.241E-12
2032.200  5.118E-12
2032.400  5.113E-12
2032.600  5.313E-12
2032.800  5.135E-12
2033.000  5.134E-12
2033.200  5.422E-12
2033.400  5.448E-12
2033.600  5.351E-12
2033.800  5.318E-12
2034.000  5.285E-12
2034.200  4.395E-12
2034.400  5.048E-12
2034.600  5.349E-12
2034.800  5.359E-12
2035.000  4.265E-12
2035.200  3.838E-12
2035.400  3.412E-12
2035.600  4.580E-12
2035.800  4.795E-12
2036.000  4.914E-12
2036.200  5.050E-12
2036.400  5.333E-12
2036.600  4.282E-12
2036.800  5.350E-12
2037.000  5.244E-12
2037.200  5.093E-12
2037.400  4.504E-12
2037.600  4.767E-12
2037.800  4.643E-12
2038.000  4.996E-12
2038.200  4.980E-12
2038.400  5.342E-12
2038.600  5.274E-12
2038.800  5.330E-12
2039.000  5.336E-12
2039.200  4.056E-12
2039.400  3.813E-12
2039.600  4.614E-12
2039.800  5.013E-12
2040.000  5.139E-12
2040.200  3.634E-12
2040.400  4.972E-12
2040.600  4.938E-12
2040.800  5.139E-12
2041.000  5.103E-12
2041.200  4.009E-12
2041.400  4.775E-12
2041.600  5.383E-12
2041.800  5.429E-12
2042.000  5.308E-12
2042.200  5.308E-12
2042.400  5.255E-12
2042.600  5.449E-12
2042.800  5.375E-12
2043.000  5.293E-12
2043.200  5.358E-12
2043.400  5.041E-12
2043.600  4.928E-12
2043.800  5.361E-12
2044.000  5.070E-12
2044.200  5.261E-12
2044.400  5.240E-12
2044.600  5.239E-12
2044.800  5.033E-12
2045.000  4.803E-12
2045.200  4.748E-12
2045.400  5.150E-12
2045.600  4.928E-12
2045.800  5.285E-12
2046.000  5.262E-12
2046.200  5.270E-12
2046.400  5.224E-12
2046.600  4.488E-12
2046.800  5.260E-12
2047.000  5.268E-12
2047.200  5.215E-12
2047.400  4.896E-12
2047.600  5.253E-12
2047.800  4.547E-12
2048.000  5.251E-12
2048.200  5.344E-12
2048.400  5.365E-12
2048.600  5.345E-12
2048.800  5.297E-12
2049.000  5.158E-12
2049.200  5.177E-12
2049.400  5.161E-12
2049.600  5.081E-12
2049.800  5.129E-12
2050.000  4.063E-12
2050.200  4.853E-12
2050.400  5.075E-12
2050.600  5.267E-12
2050.800  5.285E-12
2051.000  5.268E-12
2051.200  5.250E-12
2051.400  4.250E-12
2051.600  5.155E-12
2051.800  5.312E-12
2052.000  5.362E-12
2052.200  5.282E-12
2052.400  5.022E-12
2052.600  5.007E-12
2052.800  4.865E-12
2053.000  5.082E-12
2053.200  5.022E-12
2053.400  4.800E-12
2053.600  5.064E-12
2053.800  5.103E-12
2054.000  5.171E-12
2054.200  4.870E-12
2054.400  5.184E-12
2054.600  5.224E-12
2054.800  5.266E-12
2055.000  5.261E-12
2055.200  4.427E-12
2055.400  5.105E-12
2055.600  4.814E-12
2055.800  4.993E-12
2056.000  5.087E-12
2056.200  5.075E-12
2056.400  4.086E-12
2056.600  4.859E-12
2056.800  4.445E-12
2057.000  4.998E-12
2057.200  5.003E-12
2057.400  3.994E-12
2057.600  4.882E-12
2057.800  3.860E-12
2058.000  4.961E-12
2058.200  5.161E-12
2058.400  5.164E-12
2058.600  4.720E-12
2058.800  4.738E-12
2059.000  4.900E-12
2059.200  4.485E-12
2059.400  5.154E-12
2059.600  5.063E-12
2059.800  5.108E-12
2060.000  5.243E-12
2060.200  5.175E-12
2060.400  4.941E-12
2060.600  5.297E-12
2060.800  5.311E-12
2061.000  5.106E-12
2061.200  4.902E-12
2061.400  4.916E-12
2061.600  5.187E-12
2061.800  5.083E-12
2062.000  4.894E-12
2062.200  3.784E-12
2062.400  3.707E-12
2062.600  3.809E-12
2062.800  4.936E-12
2063.000  4.926E-12
2063.200  5.263E-12
2063.400  5.142E-12
2063.600  4.739E-12
2063.800  4.407E-12
2064.000  4.567E-12
2064.200  5.008E-12
2064.400  4.836E-12
2064.600  5.170E-12
2064.800  5.101E-12
2065.000  4.917E-12
2065.200  5.268E-12
2065.400  5.232E-12
2065.600  5.173E-12
2065.800  4.382E-12
2066.000  4.890E-12
2066.200  5.073E-12
2066.400  5.207E-12
2066.600  3.796E-12
2066.800  4.788E-12
2067.000  4.609E-12
2067.200  5.066E-12
2067.400  5.174E-12
2067.600  5.193E-12
2067.800  5.092E-12
2068.000  4.295E-12
2068.200  4.370E-12
2068.400  5.000E-12
2068.600  4.866E-12
2068.800  4.634E-12
2069.000  4.811E-12
2069.200  4.977E-12
2069.400  4.966E-12
2069.600  4.429E-12
2069.800  5.002E-12
2070.000  5.028E-12
2070.200  5.081E-12
2070.400  4.730E-12
2070.600  4.620E-12
2070.800  5.134E-12
2071.000  5.050E-12
2071.200  4.412E-12
2071.400  4.900E-12
2071.600  4.781E-12
2071.800  4.934E-12
2072.000  5.096E-12
2072.200  5.150E-12
2072.400  5.122E-12
2072.600  4.400E-12
2072.800  4.791E-12
2073.000  5.174E-12
2073.200  5.165E-12
2073.400  4.922E-12
2073.600  5.066E-12
2073.800  4.856E-12
2074.000  4.554E-12
2074.200  4.991E-12
2074.400  5.067E-12
2074.600  5.082E-12
2074.800  5.031E-12
2075.000  5.162E-12
2075.200  5.176E-12
2075.400  5.133E-12
2075.600  5.097E-12
2075.800  5.055E-12
2076.000  4.852E-12
2076.200  4.402E-12
2076.400  5.076E-12
2076.600  5.132E-12
2076.800  5.090E-12
2077.000  4.987E-12
2077.200  5.107E-12
2077.400  5.156E-12
2077.600  4.886E-12
2077.800  4.920E-12
2078.000  4.657E-12
2078.200  4.957E-12
2078.400  4.824E-12
2078.600  4.907E-12
2078.800  4.921E-12
2079.000  4.937E-12
2079.200  4.857E-12
2079.400  4.573E-12
2079.600  3.546E-12
2079.800  4.282E-12
2080.000  4.554E-12
2080.200  4.917E-12
2080.400  4.902E-12
2080.600  5.070E-12
2080.800  5.036E-12
2081.000  4.668E-12
2081.200  5.097E-12
2081.400  5.137E-12
2081.600  4.803E-12
2081.800  4.423E-12
2082.000  4.980E-12
2082.200  5.042E-12
2082.400  4.858E-12
2082.600  4.865E-12
2082.800  4.837E-12
2083.000  4.698E-12
2083.200  4.794E-12
2083.400  4.737E-12
2083.600  4.849E-12
2083.800  4.774E-12
2084.000  4.869E-12
2084.200  4.489E-12
2084.400  4.995E-12
2084.600  4.907E-12
2084.800  4.387E-12
2085.000  3.181E-12
2085.200  4.662E-12
2085.400  4.771E-12
2085.600  4.241E-12
2085.800  4.995E-12
2086.000  4.990E-12
2086.200  5.010E-12
2086.400  5.010E-12
2086.600  4.820E-12
2086.800  4.556E-12
2087.000  4.874E-12
2087.200  4.874E-12
2087.400  4.836E-12
2087.600  4.998E-12
2087.800  4.358E-12
2088.000  4.861E-12
2088.200  4.804E-12
2088.400  4.798E-12
2088.600  4.307E-12
2088.800  4.617E-12
2089.000  5.006E-12
2089.200  4.833E-12
2089.400  4.108E-12
2089.600  4.667E-12
2089.800  4.678E-12
2090.000  4.848E-12
2090.200  4.935E-12
2090.400  4.947E-12
2090.600  4.877E-12
2090.800  2.155E-12
2091.000  4.652E-12
2091.200  4.940E-12
2091.400  4.864E-12
2091.600  4.754E-12
2091.800  4.740E-12
2092.000  3.971E-12
2092.200  4.673E-12
2092.400  4.898E-12
2092.600  4.841E-12
2092.800  4.927E-12
2093.000  5.000E-12
2093.200  5.020E-12
2093.400  4.760E-12
2093.600  4.565E-12
2093.800  4.914E-12
2094.000  4.971E-12
2094.200  4.687E-12
2094.400  4.787E-12
2094.600  4.561E-12
2094.800  4.357E-12
2095.000  4.810E-12
2095.200  4.855E-12
2095.400  4.679E-12
2095.600  4.672E-12
2095.800  4.304E-12
2096.000  4.665E-12
2096.200  4.661E-12
2096.400  3.737E-12
2096.600  4.854E-12
2096.800  4.855E-12
2097.000  4.491E-12
2097.200  4.730E-12
2097.400  4.660E-12
2097.600  4.754E-12
2097.800  4.722E-12
2098.000  3.885E-12
2098.200  3.341E-12
2098.400  3.214E-12
2098.600  4.517E-12
2098.800  4.763E-12
2099.000  4.744E-12
2099.200  4.831E-12
2099.400  4.582E-12
2099.600  4.789E-12
2099.800  4.637E-12
2100.000  4.390E-12
2100.200  4.686E-12
2100.400  4.689E-12
2100.600  4.164E-12
2100.800  4.787E-12
2101.000  4.757E-12
2101.200  4.737E-12
2101.400  4.762E-12
2101.600  3.755E-12
2101.800  4.780E-12
2102.000  4.952E-12
2102.200  4.942E-12
2102.400  4.838E-12
2102.600  4.888E-12
2102.800  4.857E-12
2103.000  4.827E-12
2103.200  4.827E-12
2103.400  4.771E-12
2103.600  4.822E-12
2103.800  4.448E-12
2104.000  4.277E-12
2104.200  4.593E-12
2104.400  3.485E-12
2104.600  4.805E-12
2104.800  4.888E-12
2105.000  4.864E-12
2105.200  4.855E-12
2105.400  4.448E-12
2105.600  3.103E-12
2105.800  4.540E-12
2106.000  4.521E-12
2106.200  4.533E-12
2106.400  4.795E-12
2106.600  4.715E-12
2106.800  4.865E-12
2107.000  4.752E-12
2107.200  4.828E-12
2107.400  4.788E-12
2107.600  4.851E-12
2107.800  4.795E-12
2108.000  4.211E-12
2108.200  4.357E-12
2108.400  3.794E-12
2108.600  4.550E-12
2108.800  4.688E-12
2109.000  4.972E-12
2109.200  4.972E-12
2109.400  4.881E-12
2109.600  4.865E-12
2109.800  4.873E-12
2110.000  4.878E-12
2110.200  4.543E-12
2110.400  4.617E-12
2110.600  4.722E-12
2110.800  4.722E-12
2111.000  4.523E-12
2111.200  4.727E-12
2111.400  4.699E-12
2111.600  4.724E-12
2111.800  4.771E-12
2112.000  4.779E-12
2112.200  4.774E-12
2112.400  4.758E-12
2112.600  4.781E-12
2112.800  4.652E-12
2113.000  4.421E-12
2113.200  4.607E-12
2113.400  4.596E-12
2113.600  4.802E-12
2113.800  4.780E-12
2114.000  4.020E-12
2114.200  4.116E-12
2114.400  4.078E-12
2114.600  4.639E-12
2114.800  4.716E-12
2115.000  4.242E-12
2115.200  4.256E-12
2115.400  4.639E-12
2115.600  4.585E-12
2115.800  4.709E-12
2116.000  4.748E-12
2116.200  4.812E-12
2116.400  4.715E-12
2116.600  4.768E-12
2116.800  4.689E-12
2117.000  4.643E-12
2117.200  4.407E-12
2117.400  4.712E-12
2117.600  4.630E-12
2117.800  4.679E-12
2118.000  4.675E-12
2118.200  4.258E-12
2118.400  4.696E-12
2118.600  4.713E-12
2118.800  4.706E-12
2119.000  3.852E-12
2119.200  3.650E-12
2119.400  4.496E-12
2119.600  4.824E-12
2119.800  4.736E-12
2120.000  4.796E-12
2120.200  4.751E-12
2120.400  4.582E-12
2120.600  4.789E-12
2120.800  4.790E-12
2121.000  3.793E-12
2121.200  4.817E-12
2121.400  4.715E-12
2121.600  4.782E-12
2121.800  4.747E-12
2122.000  4.496E-12
2122.200  4.638E-12
2122.400  4.586E-12
2122.600  4.581E-12
2122.800  4.777E-12
2123.000  4.778E-12
2123.200  4.483E-12
2123.400  4.493E-12
2123.600  4.291E-12
2123.800  3.747E-12
2124.000  4.511E-12
2124.200  4.406E-12
2124.400  4.644E-12
2124.600  4.786E-12
2124.800  4.403E-12
2125.000  4.757E-12
2125.200  4.757E-12
2125.400  4.745E-12
2125.600  4.769E-12
2125.800  4.413E-12
2126.000  4.707E-12
2126.200  4.707E-12
2126.400  4.683E-12
2126.600  4.710E-12
2126.800  4.437E-12
2127.000  4.712E-12
2127.200  4.675E-12
2127.400  4.560E-12
2127.600  4.395E-12
2127.800  4.369E-12
2128.000  4.586E-12
2128.200  4.485E-12
2128.400  4.637E-12
2128.600  4.680E-12
2128.800  4.730E-12
2129.000  4.797E-12
2129.200  4.794E-12
2129.400  4.747E-12
2129.600  4.735E-12
2129.800  4.738E-12
2130.000  4.254E-12
2130.200  4.478E-12
2130.400  4.623E-12
2130.600  4.794E-12
2130.800  4.729E-12
2131.000  4.608E-12
2131.200  4.597E-12
2131.400  4.605E-12
2131.600  4.769E-12
2131.800  4.583E-12
2132.000  4.713E-12
2132.200  4.733E-12
2132.400  4.716E-12
2132.600  3.968E-12
2132.800  4.432E-12
2133.000  4.641E-12
2133.200  4.586E-12
2133.400  4.598E-12
2133.600  4.614E-12
2133.800  4.582E-12
2134.000  4.555E-12
2134.200  4.572E-12
2134.400  4.522E-12
2134.600  4.441E-12
2134.800  4.367E-12
2135.000  4.491E-12
2135.200  4.529E-12
2135.400  4.259E-12
2135.600  4.474E-12
2135.800  4.476E-12
2136.000  4.350E-12
2136.200  4.496E-12
2136.400  4.634E-12
2136.600  4.560E-12
2136.800  4.512E-12
2137.000  4.430E-12
2137.200  4.603E-12
2137.400  4.537E-12
2137.600  3.983E-12
2137.800  4.406E-12
2138.000  4.249E-12
2138.200  4.615E-12
2138.400  4.622E-12
2138.600  3.648E-12
2138.800  4.547E-12
2139.000  4.641E-12
2139.200  4.625E-12
2139.400  4.621E-12
2139.600  4.521E-12
2139.800  3.804E-12
2140.000  4.537E-12
2140.200  4.609E-12
2140.400  4.669E-12
2140.600  4.611E-12
2140.800  4.623E-12
2141.000  4.553E-12
2141.200  4.508E-12
2141.400  4.282E-12
2141.600  4.566E-12
2141.800  4.084E-12
2142.000  4.614E-12
2142.200  4.567E-12
2142.400  4.286E-12
2142.600  4.547E-12
2142.800  4.461E-12
2143.000  4.517E-12
2143.200  4.495E-12
2143.400  4.542E-12
2143.600  4.664E-12
2143.800  4.506E-12
2144.000  4.519E-12
2144.200  4.300E-12
2144.400  4.348E-12
2144.600  4.572E-12
2144.800  4.389E-12
2145.000  4.480E-12
2145.200  4.613E-12
2145.400  4.409E-12
2145.600  4.616E-12
2145.800  4.698E-12
2146.000  4.692E-12
2146.200  4.625E-12
2146.400  4.555E-12
2146.600  4.526E-12
2146.800  4.218E-12
2147.000  3.993E-12
2147.200  4.653E-12
2147.400  4.647E-12
2147.600  4.651E-12
2147.800  4.566E-12
2148.000  4.369E-12
2148.200  4.106E-12
2148.400  3.815E-12
2148.600  3.696E-12
2148.800  4.296E-12
2149.000  4.523E-12
2149.200  4.467E-12
2149.400  3.713E-12
2149.600  4.455E-12
2149.800  4.582E-12
2150.000  4.618E-12
2150.200  4.216E-12
2150.400  4.535E-12
2150.600  4.575E-12
2150.800  4.572E-12
2151.000  4.544E-12
2151.200  4.602E-12
2151.400  4.427E-12
2151.600  4.589E-12
2151.800  4.580E-12
2152.000  4.582E-12
2152.200  4.782E-12
2152.400  4.604E-12
2152.600  4.590E-12
2152.800  4.583E-12
2153.000  4.577E-12
2153.200  4.615E-12
2153.400  4.015E-12
2153.600  4.422E-12
2153.800  4.432E-12
2154.000  4.498E-12
2154.200  4.521E-12
2154.400  4.504E-12
2154.600  3.894E-12
2154.800  4.458E-12
2155.000  4.497E-12
2155.200  4.383E-12
2155.400  4.329E-12
2155.600  4.500E-12
2155.800  4.504E-12
2156.000  4.529E-12
2156.200  4.494E-12
2156.400  4.455E-12
2156.600  4.452E-12
2156.800  4.437E-12
2157.000  4.522E-12
2157.200  4.526E-12
2157.400  4.537E-12
2157.600  4.554E-12
2157.800  4.238E-12
2158.000  4.497E-12
2158.200  4.529E-12
2158.400  4.328E-12
2158.600  4.494E-12
2158.800  4.299E-12
2159.000  3.949E-12
2159.200  4.015E-12
2159.400  4.451E-12
2159.600  4.490E-12
2159.800  4.352E-12
2160.000  4.545E-12
2160.200  4.517E-12
2160.400  4.170E-12
2160.600  4.522E-12
2160.800  4.534E-12
2161.000  4.521E-12
2161.200  4.522E-12
2161.400  4.464E-12
2161.600  4.464E-12
2161.800  4.303E-12
2162.000  4.162E-12
2162.200  4.170E-12
2162.400  4.379E-12
2162.600  4.359E-12
2162.800  4.276E-12
2163.000  4.466E-12
2163.200  4.466E-12
2163.400  4.478E-12
2163.600  4.358E-12
2163.800  4.485E-12
2164.000  4.539E-12
2164.200  4.416E-12
2164.400  3.830E-12
2164.600  4.119E-12
2164.800  4.410E-12
2165.000  4.463E-12
2165.200  4.500E-12
2165.400  4.481E-12
2165.600  4.527E-12
2165.800  4.329E-12
2166.000  4.274E-12
2166.200  4.198E-12
2166.400  4.271E-12
2166.600  4.551E-12
2166.800  4.505E-12
2167.000  4.407E-12
2167.200  4.430E-12
2167.400  4.403E-12
2167.600  4.254E-12
2167.800  4.480E-12
2168.000  4.390E-12
2168.200  4.389E-12
2168.400  4.449E-12
2168.600  4.208E-12
2168.800  4.198E-12
2169.000  4.373E-12
2169.200  4.491E-12
2169.400  4.488E-12
2169.600  4.511E-12
2169.800  4.283E-12
2170.000  4.451E-12
2170.200  4.437E-12
2170.400  4.032E-12
2170.600  4.159E-12
2170.800  4.401E-12
2171.000  4.423E-12
2171.200  4.398E-12
2171.400  4.164E-12
2171.600  4.379E-12
2171.800  4.222E-12
2172.000  4.408E-12
2172.200  4.446E-12
2172.400  4.368E-12
2172.600  4.404E-12
2172.800  4.414E-12
2173.000  4.378E-12
2173.200  4.423E-12
2173.400  4.493E-12
2173.600  4.500E-12
2173.800  4.473E-12
2174.000  4.501E-12
2174.200  4.510E-12
2174.400  4.342E-12
2174.600  4.254E-12
2174.800  4.071E-12
2175.000  4.436E-12
2175.200  4.431E-12
2175.400  4.153E-12
2175.600  4.312E-12
2175.800  4.260E-12
2176.000  4.373E-12
2176.200  4.306E-12
2176.400  4.444E-12
2176.600  4.442E-12
2176.800  4.473E-12
2177.000  4.448E-12
2177.200  4.440E-12
2177.400  4.164E-12
2177.600  4.048E-12
2177.800  4.146E-12
2178.000  4.337E-12
2178.200  4.432E-12
2178.400  4.473E-12
2178.600  4.430E-12
2178.800  4.442E-12
2179.000  4.439E-12
2179.200  4.370E-12
2179.400  4.388E-12
2179.600  4.423E-12
2179.800  4.214E-12
2180.000  4.079E-12
2180.200  4.401E-12
2180.400  4.426E-12
2180.600  4.362E-12
2180.800  4.312E-12
2181.000  4.203E-12
2181.200  4.378E-12
2181.400  4.406E-12
2181.600  4.400E-12
2181.800  4.401E-12
2182.000  4.083E-12
2182.200  4.302E-12
2182.400  4.273E-12
2182.600  4.065E-12
2182.800  4.314E-12
2183.000  4.395E-12
2183.200  4.378E-12
2183.400  3.625E-12
2183.600  4.122E-12
2183.800  4.266E-12
2184.000  4.336E-12
2184.200  4.289E-12
2184.400  3.963E-12
2184.600  3.769E-12
2184.800  4.303E-12
2185.000  4.382E-12
2185.200  4.323E-12
2185.400  4.137E-12
2185.600  3.179E-12
2185.800  3.510E-12
2186.000  4.026E-12
2186.200  3.828E-12
2186.400  4.277E-12
2186.600  4.333E-12
2186.800  4.399E-12
2187.000  4.374E-12
2187.200  4.262E-12
2187.400  4.213E-12
2187.600  4.241E-12
2187.800  4.334E-12
2188.000  4.223E-12
2188.200  4.312E-12
2188.400  4.187E-12
2188.600  4.043E-12
2188.800  4.288E-12
2189.000  4.270E-12
2189.200  4.203E-12
2189.400  4.194E-12
2189.600  4.338E-12
2189.800  4.255E-12
2190.000  4.313E-12
2190.200  4.294E-12
2190.400  3.962E-12
2190.600  3.944E-12
2190.800  4.196E-12
2191.000  4.329E-12
2191.200  4.297E-12
2191.400  3.948E-12
2191.600  4.089E-12
2191.800  3.883E-12
2192.000  4.078E-12
2192.200  4.083E-12
2192.400  4.264E-12
2192.600  4.270E-12
2192.800  4.104E-12
2193.000  4.155E-12
2193.200  4.273E-12
2193.400  4.294E-12
2193.600  4.179E-12
2193.800  4.198E-12
2194.000  4.264E-12
2194.200  4.262E-12
2194.400  4.354E-12
2194.600  4.352E-12
2194.800  4.356E-12
2195.000  4.407E-12
2195.200  4.362E-12
2195.400  4.121E-12
2195.600  4.192E-12
2195.800  4.304E-12
2196.000  4.343E-12
2196.200  4.162E-12
2196.400  4.232E-12
2196.600  4.267E-12
2196.800  4.355E-12
2197.000  4.281E-12
2197.200  4.315E-12
2197.400  4.320E-12
2197.600  4.323E-12
2197.800  4.405E-12
2198.000  4.386E-12
2198.200  4.291E-12
2198.400  4.213E-12
2198.600  4.040E-12
2198.800  4.345E-12
2199.000  4.362E-12
2199.200  4.215E-12
2199.400  4.309E-12
2199.600  4.315E-12
2199.800  4.083E-12
2200.000  4.311E-12
2200.200  4.302E-12
2200.400  4.395E-12
2200.600  4.353E-12
2200.800  4.319E-12
2201.000  4.313E-12
2201.200  4.276E-12
2201.400  4.316E-12
2201.600  4.262E-12
2201.800  3.700E-12
2202.000  3.825E-12
2202.200  3.884E-12
2202.400  4.163E-12
2202.600  3.877E-12
2202.800  4.197E-12
2203.000  4.152E-12
2203.200  4.229E-12
2203.400  4.259E-12
2203.600  4.214E-12
2203.800  4.009E-12
2204.000  4.148E-12
2204.200  4.268E-12
2204.400  4.110E-12
2204.600  4.239E-12
2204.800  4.234E-12
2205.000  4.202E-12
2205.200  3.789E-12
2205.400  4.223E-12
2205.600  4.255E-12
2205.800  4.268E-12
2206.000  4.277E-12
2206.200  4.202E-12
2206.400  4.187E-12
2206.600  4.183E-12
2206.800  4.177E-12
2207.000  4.213E-12
2207.200  4.203E-12
2207.400  4.105E-12
2207.600  4.219E-12
2207.800  4.318E-12
2208.000  4.206E-12
2208.200  4.193E-12
2208.400  4.226E-12
2208.600  4.238E-12
2208.800  4.185E-12
2209.000  4.198E-12
2209.200  4.056E-12
2209.400  3.391E-12
2209.600  3.942E-12
2209.800  4.195E-12
2210.000  4.178E-12
2210.200  4.243E-12
2210.400  4.243E-12
2210.600  4.267E-12
2210.800  4.057E-12
2211.000  4.069E-12
2211.200  4.238E-12
2211.400  4.265E-12
2211.600  4.178E-12
2211.800  4.102E-12
2212.000  3.859E-12
2212.200  4.164E-12
2212.400  4.139E-12
2212.600  3.982E-12
2212.800  4.206E-12
2213.000  4.224E-12
2213.200  3.890E-12
2213.400  4.107E-12
2213.600  4.110E-12
2213.800  4.152E-12
2214.000  4.144E-12
2214.200  4.149E-12
2214.400  4.123E-12
2214.600  4.178E-12
2214.800  4.113E-12
2215.000  4.174E-12
2215.200  4.197E-12
2215.400  4.151E-12
2215.600  4.189E-12
2215.800  4.025E-12
2216.000  4.103E-12
2216.200  4.179E-12
2216.400  3.810E-12
2216.600  3.814E-12
2216.800  3.925E-12
2217.000  3.931E-12
2217.200  4.079E-12
2217.400  4.145E-12
2217.600  4.103E-12
2217.800  4.201E-12
2218.000  4.176E-12
2218.200  3.548E-12
2218.400  3.602E-12
2218.600  4.011E-12
2218.800  3.744E-12
2219.000  3.973E-12
2219.200  3.988E-12
2219.400  3.579E-12
2219.600  4.129E-12
2219.800  4.110E-12
2220.000  4.168E-12
2220.200  4.024E-12
2220.400  3.930E-12
2220.600  4.113E-12
2220.800  4.172E-12
2221.000  4.091E-12
2221.200  3.377E-12
2221.400  3.700E-12
2221.600  4.064E-12
2221.800  4.008E-12
2222.000  4.049E-12
2222.200  4.192E-12
2222.400  4.201E-12
2222.600  3.986E-12
2222.800  4.179E-12
2223.000  4.147E-12
2223.200  4.133E-12
2223.400  4.106E-12
2223.600  3.844E-12
2223.800  4.159E-12
2224.000  4.133E-12
2224.200  4.049E-12
2224.400  4.172E-12
2224.600  4.183E-12
2224.800  4.107E-12
2225.000  4.105E-12
2225.200  4.111E-12
2225.400  4.023E-12
2225.600  4.141E-12
2225.800  4.169E-12
2226.000  4.123E-12
2226.200  3.956E-12
2226.400  4.088E-12
2226.600  4.139E-12
2226.800  4.118E-12
2227.000  3.887E-12
2227.200  3.946E-12
2227.400  3.779E-12
2227.600  3.808E-12
2227.800  3.912E-12
2228.000  3.878E-12
2228.200  3.781E-12
2228.400  3.765E-12
2228.600  4.038E-12
2228.800  4.102E-12
2229.000  4.030E-12
2229.200  3.964E-12
2229.400  3.939E-12
2229.600  4.066E-12
2229.800  4.062E-12
2230.000  3.969E-12
2230.200  4.044E-12
2230.400  3.970E-12
2230.600  4.071E-12
2230.800  4.082E-12
2231.000  4.108E-12
2231.200  4.102E-12
2231.400  4.108E-12
2231.600  4.101E-12
2231.800  4.132E-12
2232.000  4.120E-12
2232.200  3.962E-12
2232.400  3.806E-12
2232.600  4.107E-12
2232.800  4.109E-12
2233.000  4.020E-12
2233.200  3.878E-12
2233.400  3.770E-12
2233.600  3.840E-12
2233.800  4.022E-12
2234.000  3.995E-12
2234.200  3.977E-12
2234.400  3.326E-12
2234.600  3.710E-12
2234.800  3.765E-12
2235.000  4.040E-12
2235.200  4.042E-12
2235.400  4.001E-12
2235.600  4.051E-12
2235.800  4.073E-12
2236.000  4.114E-12
2236.200  4.098E-12
2236.400  3.831E-12
2236.600  3.535E-12
2236.800  4.039E-12
2237.000  4.020E-12
2237.200  4.066E-12
2237.400  4.038E-12
2237.600  3.919E-12
2237.800  3.997E-12
2238.000  3.999E-12
2238.200  3.779E-12
2238.400  3.411E-12
2238.600  3.821E-12
2238.800  3.447E-12
2239.000  3.942E-12
2239.200  4.047E-12
2239.400  4.065E-12
2239.600  4.084E-12
2239.800  4.014E-12
2240.000  4.001E-12
2240.200  4.030E-12
2240.400  4.064E-12
2240.600  4.067E-12
2240.800  4.113E-12
2241.000  4.073E-12
2241.200  4.061E-12
2241.400  3.983E-12
2241.600  4.030E-12
2241.800  4.043E-12
2242.000  3.980E-12
2242.200  3.774E-12
2242.400  3.904E-12
2242.600  3.990E-12
2242.800  4.001E-12
2243.000  4.052E-12
2243.200  4.045E-12
2243.400  3.915E-12
2243.600  4.046E-12
2243.800  4.031E-12
2244.000  3.991E-12
2244.200  3.804E-12
2244.400  3.819E-12
2244.600  3.753E-12
2244.800  3.374E-12
2245.000  3.642E-12
2245.200  4.047E-12
2245.400  4.047E-12
2245.600  3.999E-12
2245.800  4.005E-12
2246.000  4.013E-12
2246.200  3.797E-12
2246.400  3.873E-12
2246.600  4.032E-12
2246.800  4.065E-12
2247.000  4.052E-12
2247.200  4.037E-12
2247.400  3.965E-12
2247.600  3.945E-12
2247.800  4.065E-12
2248.000  4.005E-12
2248.200  4.006E-12
2248.400  3.773E-12
2248.600  3.908E-12
2248.800  3.973E-12
2249.000  4.024E-12
2249.200  4.052E-12
2249.400  4.052E-12
2249.600  3.765E-12
2249.800  3.714E-12
2250.000  3.953E-12
2250.200  4.015E-12
2250.400  3.995E-12
2250.600  3.990E-12
2250.800  3.859E-12
2251.000  3.859E-12
2251.200  3.893E-12
2251.400  3.941E-12
2251.600  3.914E-12
2251.800  3.504E-12
2252.000  3.783E-12
2252.200  3.689E-12
2252.400  3.765E-12
2252.600  3.416E-12
2252.800  3.785E-12
2253.000  3.722E-12
2253.200  3.877E-12
2253.400  3.936E-12
2253.600  3.878E-12
2253.800  3.857E-12
2254.000  3.897E-12
2254.200  3.916E-12
2254.400  3.788E-12
2254.600  3.760E-12
2254.800  3.870E-12
2255.000  3.894E-12
2255.200  3.979E-12
2255.400  3.940E-12
2255.600  3.944E-12
2255.800  3.938E-12
2256.000  3.945E-12
2256.200  3.645E-12
2256.400  3.617E-12
2256.600  3.648E-12
2256.800  3.860E-12
2257.000  3.940E-12
2257.200  3.926E-12
2257.400  3.790E-12
2257.600  3.885E-12
2257.800  3.986E-12
2258.000  3.934E-12
2258.200  3.017E-12
2258.400  3.722E-12
2258.600  3.673E-12
2258.800  3.670E-12
2259.000  3.948E-12
2259.200  3.937E-12
2259.400  3.912E-12
2259.600  3.941E-12
2259.800  3.864E-12
2260.000  3.858E-12
2260.200  3.906E-12
2260.400  3.952E-12
2260.600  3.876E-12
2260.800  3.586E-12
2261.000  3.822E-12
2261.200  3.763E-12
2261.400  3.896E-12
2261.600  3.892E-12
2261.800  3.819E-12
2262.000  3.924E-12
2262.200  3.882E-12
2262.400  3.618E-12
2262.600  3.889E-12
2262.800  3.931E-12
2263.000  3.964E-12
2263.200  3.959E-12
2263.400  3.795E-12
2263.600  3.919E-12
2263.800  3.965E-12
2264.000  3.947E-12
2264.200  4.004E-12
2264.400  3.926E-12
2264.600  3.934E-12
2264.800  3.969E-12
2265.000  3.890E-12
2265.200  3.740E-12
2265.400  3.910E-12
2265.600  3.506E-12
2265.800  3.892E-12
2266.000  3.912E-12
2266.200  3.971E-12
2266.400  4.031E-12
2266.600  3.988E-12
2266.800  3.949E-12
2267.000  3.936E-12
2267.200  3.832E-12
2267.400  3.952E-12
2267.600  3.973E-12
2267.800  4.018E-12
2268.000  3.923E-12
2268.200  3.864E-12
2268.400  3.924E-12
2268.600  3.815E-12
2268.800  3.923E-12
2269.000  3.803E-12
2269.200  3.931E-12
2269.400  3.919E-12
2269.600  3.954E-12
2269.800  3.978E-12
2270.000  3.961E-12
2270.200  3.949E-12
2270.400  3.960E-12
2270.600  3.930E-12
2270.800  3.903E-12
2271.000  3.851E-12
2271.200  3.940E-12
2271.400  3.950E-12
2271.600  3.909E-12
2271.800  3.797E-12
2272.000  3.901E-12
2272.200  3.887E-12
2272.400  3.832E-12
2272.600  3.938E-12
2272.800  3.935E-12
2273.000  3.849E-12
2273.200  3.938E-12
2273.400  3.883E-12
2273.600  3.970E-12
2273.800  3.980E-12
2274.000  3.729E-12
2274.200  3.911E-12
2274.400  3.911E-12
2274.600  3.933E-12
2274.800  3.985E-12
2275.000  3.969E-12
2275.200  3.926E-12
2275.400  3.923E-12
2275.600  3.899E-12
2275.800  3.876E-12
2276.000  3.526E-12
2276.200  3.655E-12
2276.400  3.930E-12
2276.600  3.969E-12
2276.800  3.944E-12
2277.000  3.849E-12
2277.200  3.847E-12
2277.400  3.834E-12
2277.600  3.961E-12
2277.800  3.967E-12
2278.000  3.575E-12
2278.200  3.846E-12
2278.400  3.941E-12
2278.600  3.881E-12
2278.800  3.844E-12
2279.000  3.707E-12
2279.200  3.875E-12
2279.400  3.819E-12
2279.600  3.877E-12
2279.800  3.879E-12
2280.000  3.794E-12
2280.200  3.817E-12
2280.400  3.846E-12
2280.600  3.802E-12
2280.800  3.856E-12
2281.000  3.828E-12
2281.200  3.821E-12
2281.400  3.839E-12
2281.600  3.830E-12
2281.800  3.870E-12
2282.000  3.857E-12
2282.200  3.824E-12
2282.400  3.831E-12
2282.600  3.802E-12
2282.800  3.824E-12
2283.000  3.776E-12
2283.200  3.798E-12
2283.400  3.868E-12
2283.600  3.871E-12
2283.800  3.804E-12
2284.000  3.800E-12
2284.200  3.851E-12
2284.400  3.762E-12
2284.600  3.782E-12
2284.800  3.807E-12
2285.000  3.805E-12
2285.200  3.647E-12
2285.400  3.834E-12
2285.600  3.790E-12
2285.800  3.797E-12
2286.000  3.805E-12
2286.200  3.772E-12
2286.400  3.765E-12
2286.600  3.760E-12
2286.800  3.726E-12
2287.000  3.735E-12
2287.200  3.714E-12
2287.400  3.666E-12
2287.600  3.724E-12
2287.800  3.320E-12
2288.000  3.771E-12
2288.200  3.789E-12
2288.400  3.699E-12
2288.600  3.762E-12
2288.800  3.790E-12
2289.000  3.787E-12
2289.200  3.714E-12
2289.400  3.750E-12
2289.600  3.774E-12
2289.800  3.731E-12
2290.000  3.622E-12
2290.200  3.755E-12
2290.400  3.763E-12
2290.600  3.734E-12
2290.800  3.736E-12
2291.000  3.732E-12
2291.200  3.736E-12
2291.400  3.508E-12
2291.600  3.774E-12
2291.800  3.746E-12
2292.000  3.742E-12
2292.200  3.757E-12
2292.400  3.743E-12
2292.600  3.609E-12
2292.800  3.629E-12
2293.000  3.697E-12
2293.200  3.558E-12
2293.400  3.594E-12
2293.600  3.517E-12
2293.800  3.644E-12
2294.000  3.640E-12
2294.200  3.717E-12
2294.400  3.717E-12
2294.600  3.731E-12
2294.800  3.663E-12
2295.000  3.666E-12
2295.200  3.633E-12
2295.400  3.641E-12
2295.600  3.663E-12
2295.800  3.695E-12
2296.000  3.649E-12
2296.200  3.554E-12
2296.400  3.519E-12
2296.600  3.395E-12
2296.800  3.500E-12
2297.000  3.603E-12
2297.200  3.521E-12
2297.400  3.058E-12
2297.600  2.360E-12
2297.800  2.966E-12
2298.000  3.317E-12
2298.200  3.450E-12
2298.400  3.449E-12
2298.600  3.404E-12
2298.800  3.618E-12
2299.000  3.561E-12
2299.200  3.620E-12
2299.400  3.670E-12
2299.600  3.697E-12
2299.800  3.702E-12
2300.000  3.668E-12
2300.200  3.605E-12
2300.400  3.576E-12
2300.600  3.604E-12
2300.800  3.590E-12
2301.000  3.648E-12
2301.200  3.327E-12
2301.400  3.623E-12
2301.600  3.634E-12
2301.800  3.716E-12
2302.000  3.710E-12
2302.200  3.664E-12
2302.400  3.675E-12
2302.600  3.528E-12
2302.800  3.583E-12
2303.000  3.608E-12
2303.200  3.578E-12
2303.400  3.604E-12
2303.600  3.306E-12
2303.800  3.461E-12
2304.000  3.442E-12
2304.200  3.647E-12
2304.400  3.626E-12
2304.600  3.673E-12
2304.800  3.666E-12
2305.000  3.635E-12
2305.200  3.700E-12
2305.400  3.690E-12
2305.600  3.601E-12
2305.800  3.609E-12
2306.000  3.537E-12
2306.200  3.575E-12
2306.400  3.661E-12
2306.600  3.646E-12
2306.800  3.643E-12
2307.000  3.629E-12
2307.200  3.627E-12
2307.400  3.585E-12
2307.600  3.604E-12
2307.800  3.578E-12
2308.000  3.564E-12
2308.200  3.619E-12
2308.400  3.601E-12
2308.600  3.519E-12
2308.800  3.511E-12
2309.000  3.581E-12
2309.200  3.551E-12
2309.400  3.537E-12
2309.600  3.562E-12
2309.800  3.581E-12
2310.000  3.617E-12
2310.200  3.536E-12
2310.400  3.571E-12
2310.600  3.488E-12
2310.800  3.505E-12
2311.000  3.542E-12
2311.200  3.612E-12
2311.400  3.599E-12
2311.600  3.586E-12
2311.800  3.547E-12
2312.000  3.468E-12
2312.200  3.505E-12
2312.400  3.584E-12
2312.600  3.587E-12
2312.800  3.518E-12
2313.000  3.554E-12
2313.200  3.549E-12
2313.400  3.433E-12
2313.600  3.351E-12
2313.800  3.461E-12
2314.000  3.470E-12
2314.200  3.446E-12
2314.400  3.487E-12
2314.600  3.333E-12
2314.800  3.266E-12
2315.000  3.522E-12
2315.200  3.515E-12
2315.400  3.385E-12
2315.600  3.485E-12
2315.800  3.537E-12
2316.000  3.479E-12
2316.200  3.498E-12
2316.400  3.366E-12
2316.600  3.477E-12
2316.800  3.462E-12
2317.000  3.495E-12
2317.200  3.414E-12
2317.400  3.511E-12
2317.600  3.527E-12
2317.800  3.525E-12
2318.000  3.515E-12
2318.200  3.432E-12
2318.400  3.535E-12
2318.600  3.536E-12
2318.800  3.366E-12
2319.000  3.507E-12
2319.200  3.473E-12
2319.400  3.546E-12
2319.600  3.468E-12
2319.800  2.644E-12
2320.000  3.271E-12
2320.200  3.399E-12
2320.400  3.399E-12
2320.600  3.474E-12
2320.800  3.463E-12
2321.000  3.484E-12
2321.200  3.507E-12
2321.400  3.526E-12
2321.600  3.556E-12
2321.800  3.556E-12
2322.000  3.502E-12
2322.200  3.508E-12
2322.400  3.166E-12
2322.600  3.479E-12
2322.800  3.397E-12
2323.000  3.267E-12
2323.200  3.456E-12
2323.400  3.477E-12
2323.600  3.467E-12
2323.800  3.495E-12
2324.000  3.499E-12
2324.200  3.525E-12
2324.400  3.529E-12
2324.600  3.391E-12
2324.800  3.438E-12
2325.000  3.420E-12
2325.200  3.498E-12
2325.400  3.500E-12
2325.600  2.970E-12
2325.800  3.380E-12
2326.000  3.445E-12
2326.200  3.448E-12
2326.400  3.342E-12
2326.600  3.468E-12
2326.800  3.415E-12
2327.000  3.398E-12
2327.200  3.412E-12
2327.400  3.427E-12
2327.600  3.323E-12
2327.800  3.424E-12
2328.000  3.434E-12
2328.200  3.397E-12
2328.400  3.248E-12
2328.600  3.242E-12
2328.800  3.334E-12
2329.000  3.446E-12
2329.200  3.479E-12
2329.400  3.488E-12
2329.600  3.499E-12
2329.800  3.480E-12
2330.000  3.355E-12
2330.200  3.432E-12
2330.400  3.428E-12
2330.600  3.309E-12
2330.800  3.475E-12
2331.000  3.303E-12
2331.200  3.283E-12
2331.400  3.280E-12
2331.600  3.447E-12
2331.800  3.287E-12
2332.000  3.104E-12
2332.200  2.800E-12
2332.400  2.826E-12
2332.600  3.318E-12
2332.800  3.428E-12
2333.000  3.339E-12
2333.200  3.238E-12
2333.400  3.311E-12
2333.600  3.295E-12
2333.800  3.259E-12
2334.000  3.447E-12
2334.200  3.386E-12
2334.400  3.372E-12
2334.600  3.394E-12
2334.800  3.315E-12
2335.000  2.920E-12
2335.200  3.131E-12
2335.400  3.331E-12
2335.600  3.389E-12
2335.800  3.385E-12
2336.000  3.315E-12
2336.200  3.385E-12
2336.400  3.378E-12
2336.600  3.408E-12
2336.800  3.431E-12
2337.000  3.388E-12
2337.200  3.261E-12
2337.400  3.188E-12
2337.600  3.296E-12
2337.800  3.281E-12
2338.000  3.221E-12
2338.200  3.285E-12
2338.400  3.290E-12
2338.600  3.284E-12
2338.800  3.363E-12
2339.000  3.398E-12
2339.200  3.330E-12
2339.400  3.361E-12
2339.600  3.294E-12
2339.800  3.322E-12
2340.000  3.334E-12
2340.200  3.321E-12
2340.400  3.320E-12
2340.600  3.200E-12
2340.800  3.369E-12
2341.000  3.289E-12
2341.200  2.996E-12
2341.400  3.351E-12
2341.600  3.350E-12
2341.800  3.301E-12
2342.000  3.291E-12
2342.200  3.298E-12
2342.400  3.355E-12
2342.600  3.338E-12
2342.800  3.321E-12
2343.000  3.294E-12
2343.200  3.264E-12
2343.400  3.336E-12
2343.600  3.327E-12
2343.800  3.251E-12
2344.000  3.116E-12
2344.200  1.999E-12
2344.400  3.187E-12
2344.600  3.190E-12
2344.800  3.207E-12
2345.000  3.217E-12
2345.200  3.274E-12
2345.400  3.311E-12
2345.600  3.297E-12
2345.800  3.322E-12
2346.000  3.050E-12
2346.200  3.166E-12
2346.400  3.198E-12
2346.600  3.341E-12
2346.800  3.350E-12
2347.000  3.218E-12
2347.200  3.249E-12
2347.400  3.176E-12
2347.600  2.750E-12
2347.800  3.164E-12
2348.000  3.272E-12
2348.200  3.218E-12
2348.400  3.306E-12
2348.600  3.292E-12
2348.800  2.962E-12
2349.000  3.044E-12
2349.200  3.341E-12
2349.400  3.348E-12
2349.600  3.378E-12
2349.800  3.367E-12
2350.000  3.337E-12
2350.200  3.366E-12
2350.400  3.340E-12
2350.600  3.299E-12
2350.800  3.301E-12
2351.000  3.294E-12
2351.200  3.173E-12
2351.400  3.307E-12
2351.600  3.308E-12
2351.800  3.137E-12
2352.000  3.281E-12
2352.200  3.301E-12
2352.400  3.276E-12
2352.600  3.341E-12
2352.800  3.303E-12
2353.000  3.288E-12
2353.200  3.245E-12
2353.400  3.179E-12
2353.600  3.286E-12
2353.800  3.297E-12
2354.000  3.291E-12
2354.200  3.132E-12
2354.400  3.131E-12
2354.600  3.231E-12
2354.800  3.267E-12
2355.000  3.316E-12
2355.200  3.091E-12
2355.400  3.007E-12
2355.600  3.349E-12
2355.800  3.372E-12
2356.000  3.248E-12
2356.200  3.394E-12
2356.400  3.437E-12
2356.600  3.343E-12
2356.800  3.306E-12
2357.000  3.286E-12
2357.200  3.407E-12
2357.400  3.446E-12
2357.600  3.409E-12
2357.800  3.353E-12
2358.000  3.368E-12
2358.200  3.425E-12
2358.400  3.366E-12
2358.600  3.421E-12
2358.800  3.409E-12
2359.000  3.383E-12
2359.200  3.383E-12
2359.400  3.316E-12
2359.600  3.366E-12
2359.800  3.178E-12
2360.000  3.354E-12
2360.200  3.324E-12
2360.400  3.412E-12
2360.600  3.394E-12
2360.800  3.226E-12
2361.000  3.079E-12
2361.200  3.298E-12
2361.400  3.341E-12
2361.600  3.335E-12
2361.800  3.376E-12
2362.000  3.422E-12
2362.200  3.416E-12
2362.400  3.331E-12
2362.600  3.299E-12
2362.800  3.340E-12
2363.000  3.338E-12
2363.200  3.179E-12
2363.400  3.349E-12
2363.600  3.316E-12
2363.800  3.281E-12
2364.000  3.297E-12
2364.200  3.244E-12
2364.400  3.262E-12
2364.600  3.250E-12
2364.800  3.339E-12
2365.000  3.269E-12
2365.200  3.324E-12
2365.400  3.240E-12
2365.600  3.275E-12
2365.800  3.280E-12
2366.000  3.048E-12
2366.200  3.245E-12
2366.400  3.283E-12
2366.600  3.222E-12
2366.800  3.277E-12
2367.000  3.176E-12
2367.200  3.239E-12
2367.400  3.300E-12
2367.600  3.302E-12
2367.800  3.338E-12
2368.000  3.265E-12
2368.200  3.327E-12
2368.400  3.308E-12
2368.600  3.413E-12
2368.800  3.399E-12
2369.000  3.358E-12
2369.200  3.310E-12
2369.400  3.343E-12
2369.600  3.343E-12
2369.800  3.248E-12
2370.000  3.269E-12
2370.200  3.402E-12
2370.400  3.286E-12
2370.600  3.196E-12
2370.800  3.270E-12
2371.000  3.253E-12
2371.200  3.223E-12
2371.400  3.257E-12
2371.600  3.129E-12
2371.800  3.166E-12
2372.000  3.341E-12
2372.200  3.389E-12
2372.400  3.390E-12
2372.600  3.312E-12
2372.800  3.345E-12
2373.000  3.345E-12
2373.200  3.278E-12
2373.400  3.304E-12
2373.600  3.367E-12
2373.800  3.244E-12
2374.000  3.329E-12
2374.200  3.283E-12
2374.400  2.931E-12
2374.600  3.081E-12
2374.800  3.288E-12
2375.000  3.067E-12
2375.200  3.297E-12
2375.400  3.295E-12
2375.600  3.209E-12
2375.800  2.862E-12
2376.000  3.111E-12
2376.200  3.283E-12
2376.400  3.412E-12
2376.600  3.259E-12
2376.800  3.324E-12
2377.000  3.330E-12
2377.200  3.139E-12
2377.400  3.164E-12
2377.600  3.411E-12
2377.800  3.373E-12
2378.000  3.288E-12
2378.200  3.282E-12
2378.400  3.375E-12
2378.600  3.303E-12
2378.800  3.244E-12
2379.000  3.234E-12
2379.200  3.262E-12
2379.400  3.233E-12
2379.600  3.328E-12
2379.800  3.198E-12
2380.000  3.058E-12
2380.200  3.199E-12
2380.400  3.280E-12
2380.600  3.280E-12
2380.800  3.189E-12
2381.000  3.315E-12
2381.200  3.289E-12
2381.400  3.232E-12
2381.600  3.186E-12
2381.800  3.248E-12
2382.000  3.297E-12
2382.200  3.299E-12
2382.400  3.351E-12
2382.600  3.237E-12
2382.800  2.124E-12
2383.000  3.141E-12
2383.200  3.058E-12
2383.400  3.256E-12
2383.600  3.196E-12
2383.800  3.128E-12
2384.000  3.140E-12
2384.200  3.216E-12
2384.400  3.257E-12
2384.600  3.363E-12
2384.800  3.317E-12
2385.000  3.286E-12
2385.200  3.218E-12
2385.400  3.219E-12
2385.600  3.182E-12
2385.800  3.208E-12
2386.000  3.266E-12
2386.200  3.274E-12
2386.400  3.311E-12
2386.600  3.300E-12
2386.800  3.290E-12
2387.000  3.233E-12
2387.200  3.232E-12
2387.400  3.224E-12
2387.600  3.216E-12
2387.800  3.227E-12
2388.000  3.205E-12
2388.200  3.241E-12
2388.400  3.216E-12
2388.600  3.239E-12
2388.800  3.221E-12
2389.000  3.120E-12
2389.200  3.069E-12
2389.400  2.871E-12
2389.600  3.053E-12
2389.800  2.726E-12
2390.000  3.175E-12
2390.200  3.087E-12
2390.400  3.166E-12
2390.600  3.150E-12
2390.800  3.168E-12
2391.000  3.251E-12
2391.200  3.244E-12
2391.400  3.166E-12
2391.600  3.161E-12
2391.800  3.131E-12
2392.000  3.196E-12
2392.200  3.146E-12
2392.400  3.170E-12
2392.600  3.228E-12
2392.800  3.160E-12
2393.000  3.315E-12
2393.200  3.271E-12
2393.400  3.271E-12
2393.600  3.258E-12
2393.800  3.280E-12
2394.000  3.295E-12
2394.200  3.252E-12
2394.400  3.233E-12
2394.600  3.254E-12
2394.800  3.222E-12
2395.000  3.297E-12
2395.200  3.163E-12
2395.400  3.149E-12
2395.600  3.184E-12
2395.800  3.263E-12
2396.000  3.188E-12
2396.200  2.985E-12
2396.400  3.099E-12
2396.600  3.268E-12
2396.800  3.223E-12
2397.000  3.169E-12
2397.200  3.230E-12
2397.400  3.230E-12
2397.600  3.273E-12
2397.800  3.205E-12
2398.000  3.205E-12
2398.200  3.216E-12
2398.400  3.219E-12
2398.600  3.187E-12
2398.800  3.168E-12
2399.000  3.124E-12
2399.200  3.118E-12
2399.400  3.138E-12
2399.600  3.234E-12
2399.800  3.231E-12
2400.000  3.146E-12
2400.200  3.149E-12
2400.400  3.084E-12
2400.600  3.150E-12
2400.800  3.093E-12
2401.000  3.063E-12
2401.200  3.179E-12
2401.400  3.191E-12
2401.600  3.257E-12
2401.800  3.262E-12
2402.000  3.206E-12
2402.200  3.234E-12
2402.400  3.218E-12
2402.600  3.156E-12
2402.800  3.091E-12
2403.000  2.986E-12
2403.200  3.122E-12
2403.400  3.127E-12
2403.600  3.163E-12
2403.800  3.187E-12
2404.000  3.204E-12
2404.200  3.106E-12
2404.400  3.130E-12
2404.600  3.129E-12
2404.800  2.770E-12
2405.000  3.080E-12
2405.200  3.177E-12
2405.400  3.177E-12
2405.600  2.886E-12
2405.800  3.128E-12
2406.000  3.172E-12
2406.200  3.231E-12
2406.400  3.234E-12
2406.600  3.153E-12
2406.800  3.186E-12
2407.000  3.182E-12
2407.200  3.140E-12
2407.400  2.940E-12
2407.600  3.116E-12
2407.800  3.014E-12
2408.000  3.172E-12
2408.200  3.181E-12
2408.400  3.170E-12
2408.600  3.135E-12
2408.800  3.017E-12
2409.000  3.187E-12
2409.200  3.139E-12
2409.400  3.148E-12
2409.600  3.167E-12
2409.800  3.191E-12
2410.000  2.914E-12
2410.200  3.106E-12
2410.400  3.236E-12
2410.600  3.228E-12
2410.800  3.209E-12
2411.000  3.041E-12
2411.200  2.960E-12
2411.400  3.144E-12
2411.600  3.165E-12
2411.800  3.085E-12
2412.000  3.212E-12
2412.200  3.217E-12
2412.400  3.159E-12
2412.600  3.113E-12
2412.800  3.163E-12
2413.000  3.160E-12
2413.200  3.136E-12
2413.400  3.187E-12
2413.600  3.176E-12
2413.800  3.155E-12
2414.000  2.976E-12
2414.200  3.052E-12
2414.400  3.065E-12
2414.600  3.061E-12
2414.800  3.047E-12
2415.000  3.160E-12
2415.200  3.167E-12
2415.400  3.055E-12
2415.600  3.104E-12
2415.800  3.028E-12
2416.000  3.089E-12
2416.200  3.153E-12
2416.400  3.149E-12
2416.600  3.177E-12
2416.800  3.048E-12
2417.000  3.081E-12
2417.200  3.083E-12
2417.400  3.083E-12
2417.600  3.058E-12
2417.800  3.160E-12
2418.000  3.158E-12
2418.200  3.156E-12
2418.400  3.153E-12
2418.600  2.988E-12
2418.800  3.216E-12
2419.000  3.191E-12
2419.200  3.003E-12
2419.400  3.014E-12
2419.600  2.965E-12
2419.800  3.117E-12
2420.000  3.195E-12
2420.200  3.162E-12
2420.400  3.242E-12
2420.600  3.105E-12
2420.800  3.048E-12
2421.000  3.109E-12
2421.200  2.978E-12
2421.400  3.102E-12
2421.600  3.124E-12
2421.800  3.186E-12
2422.000  3.145E-12
2422.200  3.023E-12
2422.400  3.087E-12
2422.600  3.103E-12
2422.800  3.101E-12
2423.000  3.082E-12
2423.200  3.087E-12
2423.400  2.977E-12
2423.600  3.082E-12
2423.800  3.066E-12
2424.000  3.112E-12
2424.200  2.965E-12
2424.400  2.762E-12
2424.600  2.998E-12
2424.800  2.986E-12
2425.000  2.979E-12
2425.200  3.031E-12
2425.400  3.088E-12
2425.600  3.162E-12
2425.800  3.155E-12
2426.000  3.151E-12
2426.200  3.146E-12
2426.400  3.071E-12
2426.600  3.099E-12
2426.800  3.106E-12
2427.000  3.094E-12
2427.200  3.165E-12
2427.400  3.126E-12
2427.600  3.126E-12
2427.800  3.037E-12
2428.000  3.092E-12
2428.200  3.107E-12
2428.400  3.055E-12
2428.600  3.050E-12
2428.800  3.103E-12
2429.000  3.058E-12
2429.200  3.123E-12
2429.400  3.128E-12
2429.600  3.019E-12
2429.800  2.966E-12
2430.000  3.010E-12
2430.200  3.040E-12
2430.400  3.040E-12
2430.600  2.957E-12
2430.800  2.867E-12
2431.000  3.052E-12
2431.200  3.111E-12
2431.400  3.135E-12
2431.600  3.079E-12
2431.800  3.131E-12
2432.000  3.061E-12
2432.200  3.098E-12
2432.400  3.090E-12
2432.600  3.169E-12
2432.800  3.098E-12
2433.000  3.001E-12
2433.200  3.045E-12
2433.400  3.043E-12
2433.600  2.905E-12
2433.800  3.056E-12
2434.000  3.104E-12
2434.200  2.892E-12
2434.400  3.039E-12
2434.600  3.060E-12
2434.800  3.034E-12
2435.000  3.042E-12
2435.200  3.118E-12
2435.400  3.013E-12
2435.600  2.737E-12
2435.800  3.060E-12
2436.000  3.029E-12
2436.200  3.045E-12
2436.400  3.126E-12
2436.600  3.125E-12
2436.800  3.074E-12
2437.000  3.005E-12
2437.200  3.036E-12
2437.400  3.088E-12
2437.600  3.058E-12
2437.800  3.019E-12
2438.000  2.996E-12
2438.200  2.993E-12
2438.400  2.956E-12
2438.600  2.943E-12
2438.800  2.976E-12
2439.000  3.051E-12
2439.200  3.137E-12
2439.400  3.111E-12
2439.600  3.143E-12
2439.800  3.149E-12
2440.000  2.869E-12
2440.200  3.055E-12
2440.400  3.066E-12
2440.600  3.045E-12
2440.800  3.036E-12
2441.000  2.979E-12
2441.200  2.950E-12
2441.400  3.021E-12
2441.600  3.085E-12
2441.800  3.023E-12
2442.000  2.964E-12
2442.200  3.046E-12
2442.400  3.057E-12
2442.600  3.070E-12
2442.800  3.105E-12
2443.000  3.065E-12
2443.200  3.017E-12
2443.400  2.990E-12
2443.600  3.069E-12
2443.800  3.083E-12
2444.000  3.061E-12
2444.200  3.028E-12
2444.400  2.981E-12
2444.600  3.017E-12
2444.800  3.049E-12
2445.000  3.036E-12
2445.200  2.938E-12
2445.400  3.052E-12
2445.600  3.049E-12
2445.800  3.009E-12
2446.000  3.068E-12
2446.200  2.974E-12
2446.400  2.927E-12
2446.600  2.983E-12
2446.800  2.982E-12
2447.000  2.987E-12
2447.200  2.955E-12
2447.400  3.087E-12
2447.600  3.025E-12
2447.800  3.021E-12
2448.000  2.856E-12
2448.200  2.968E-12
2448.400  2.953E-12
2448.600  3.015E-12
2448.800  3.015E-12
2449.000  2.994E-12
2449.200  3.019E-12
2449.400  3.035E-12
2449.600  3.032E-12
2449.800  3.059E-12
2450.000  3.029E-12
2450.200  2.951E-12
2450.400  2.986E-12
2450.600  2.982E-12
2450.800  2.889E-12
2451.000  2.918E-12
2451.200  2.997E-12
2451.400  2.990E-12
2451.600  3.003E-12
2451.800  3.049E-12
2452.000  3.037E-12
2452.200  3.040E-12
2452.400  3.061E-12
2452.600  3.059E-12
2452.800  3.032E-12
2453.000  3.028E-12
2453.200  2.996E-12
2453.400  3.048E-12
2453.600  3.002E-12
2453.800  2.996E-12
2454.000  3.033E-12
2454.200  3.021E-12
2454.400  2.995E-12
2454.600  2.905E-12
2454.800  2.988E-12
2455.000  3.004E-12
2455.200  2.989E-12
2455.400  2.884E-12
2455.600  2.990E-12
2455.800  3.018E-12
2456.000  2.965E-12
2456.200  2.971E-12
2456.400  2.919E-12
2456.600  2.950E-12
2456.800  2.996E-12
2457.000  3.024E-12
2457.200  2.968E-12
2457.400  2.851E-12
2457.600  2.948E-12
2457.800  2.946E-12
2458.000  2.975E-12
2458.200  2.991E-12
2458.400  2.920E-12
2458.600  3.023E-12
2458.800  3.019E-12
2459.000  3.054E-12
2459.200  3.047E-12
2459.400  3.040E-12
2459.600  2.579E-12
2459.800  2.924E-12
2460.000  2.956E-12
2460.200  2.971E-12
2460.400  2.960E-12
2460.600  3.036E-12
2460.800  2.936E-12
2461.000  2.942E-12
2461.200  2.926E-12
2461.400  2.960E-12
2461.600  2.943E-12
2461.800  2.965E-12
2462.000  2.840E-12
2462.200  3.020E-12
2462.400  2.934E-12
2462.600  2.880E-12
2462.800  2.984E-12
2463.000  2.976E-12
2463.200  2.961E-12
2463.400  2.989E-12
2463.600  2.980E-12
2463.800  2.956E-12
2464.000  2.930E-12
2464.200  3.069E-12
2464.400  3.051E-12
2464.600  2.945E-12
2464.800  2.915E-12
2465.000  2.987E-12
2465.200  2.990E-12
2465.400  2.966E-12
2465.600  2.941E-12
2465.800  2.898E-12
2466.000  2.894E-12
2466.200  2.995E-12
2466.400  2.998E-12
2466.600  2.909E-12
2466.800  2.968E-12
2467.000  2.917E-12
2467.200  2.868E-12
2467.400  2.787E-12
2467.600  2.884E-12
2467.800  2.924E-12
2468.000  2.919E-12
2468.200  2.975E-12
2468.400  2.915E-12
2468.600  2.945E-12
2468.800  2.975E-12
2469.000  2.952E-12
2469.200  2.888E-12
2469.400  2.918E-12
2469.600  2.901E-12
2469.800  2.906E-12
2470.000  2.926E-12
2470.200  2.894E-12
2470.400  2.946E-12
2470.600  2.965E-12
2470.800  2.947E-12
2471.000  2.915E-12
2471.200  2.881E-12
2471.400  2.802E-12
2471.600  2.847E-12
2471.800  2.972E-12
2472.000  2.978E-12
2472.200  2.960E-12
2472.400  2.907E-12
2472.600  2.940E-12
2472.800  2.955E-12
2473.000  2.952E-12
2473.200  2.804E-12
2473.400  2.764E-12
2473.600  2.597E-12
2473.800  2.867E-12
2474.000  2.813E-12
2474.200  2.867E-12
2474.400  2.912E-12
2474.600  2.918E-12
2474.800  2.897E-12
2475.000  2.953E-12
2475.200  2.937E-12
2475.400  2.916E-12
2475.600  2.798E-12
2475.800  2.867E-12
2476.000  2.912E-12
2476.200  2.896E-12
2476.400  2.969E-12
2476.600  2.969E-12
2476.800  2.928E-12
2477.000  2.917E-12
2477.200  2.981E-12
2477.400  2.912E-12
2477.600  2.910E-12
2477.800  2.917E-12
2478.000  2.911E-12
2478.200  2.887E-12
2478.400  2.879E-12
2478.600  2.911E-12
2478.800  2.908E-12
2479.000  2.917E-12
2479.200  2.926E-12
2479.400  2.922E-12
2479.600  3.013E-12
2479.800  2.909E-12
2480.000  2.910E-12
2480.200  2.937E-12
2480.400  2.923E-12
2480.600  2.839E-12
2480.800  2.867E-12
2481.000  2.901E-12
2481.200  2.932E-12
2481.400  2.944E-12
2481.600  2.962E-12
2481.800  2.892E-12
2482.000  2.920E-12
2482.200  2.900E-12
2482.400  2.887E-12
2482.600  2.923E-12
2482.800  2.844E-12
2483.000  2.805E-12
2483.200  2.922E-12
2483.400  2.760E-12
2483.600  2.805E-12
2483.800  2.574E-12
2484.000  2.897E-12
2484.200  2.979E-12
2484.400  2.938E-12
2484.600  2.932E-12
2484.800  2.934E-12
2485.000  2.796E-12
2485.200  2.866E-12
2485.400  2.887E-12
2485.600  2.887E-12
2485.800  2.870E-12
2486.000  2.874E-12
2486.200  2.903E-12
2486.400  2.904E-12
2486.600  2.893E-12
2486.800  2.880E-12
2487.000  2.837E-12
2487.200  2.872E-12
2487.400  2.940E-12
2487.600  2.901E-12
2487.800  2.724E-12
2488.000  2.866E-12
2488.200  2.904E-12
2488.400  2.899E-12
2488.600  2.893E-12
2488.800  2.921E-12
2489.000  2.926E-12
2489.200  2.895E-12
2489.400  2.867E-12
2489.600  2.878E-12
2489.800  2.895E-12
2490.000  2.856E-12
2490.200  2.795E-12
2490.400  2.784E-12
2490.600  2.852E-12
2490.800  2.882E-12
2491.000  2.861E-12
2491.200  2.844E-12
2491.400  2.835E-12
2491.600  2.768E-12
2491.800  2.878E-12
2492.000  2.830E-12
2492.200  2.842E-12
2492.400  2.863E-12
2492.600  2.871E-12
2492.800  2.926E-12
2493.000  2.829E-12
2493.200  2.859E-12
2493.400  2.887E-12
2493.600  2.897E-12
2493.800  2.887E-12
2494.000  2.537E-12
2494.200  2.832E-12
2494.400  2.921E-12
2494.600  2.852E-12
2494.800  2.853E-12
2495.000  2.854E-12
2495.200  2.922E-12
2495.400  2.879E-12
2495.600  2.869E-12
2495.800  2.894E-12
2496.000  2.921E-12
2496.200  2.952E-12
2496.400  2.952E-12
2496.600  2.796E-12
2496.800  2.837E-12
2497.000  2.811E-12
2497.200  2.847E-12
2497.400  2.844E-12
2497.600  2.782E-12
2497.800  2.828E-12
2498.000  2.862E-12
2498.200  2.917E-12
2498.400  2.905E-12
2498.600  2.842E-12
2498.800  2.881E-12
2499.000  2.873E-12
2499.200  2.870E-12
2499.400  2.858E-12
2499.600  2.787E-12
2499.800  2.872E-12
2500.000  2.864E-12
2500.200  2.857E-12
2500.400  2.907E-12
2500.600  2.860E-12
2500.800  2.783E-12
2501.000  2.825E-12
2501.200  2.832E-12
2501.400  2.831E-12
2501.600  2.784E-12
2501.800  2.714E-12
2502.000  2.802E-12
2502.200  2.757E-12
2502.400  2.883E-12
2502.600  2.873E-12
2502.800  2.816E-12
2503.000  2.820E-12
2503.200  2.829E-12
2503.400  2.831E-12
2503.600  2.781E-12
2503.800  2.851E-12
2504.000  2.824E-12
2504.200  2.811E-12
2504.400  2.791E-12
2504.600  2.708E-12
2504.800  2.883E-12
2505.000  2.842E-12
2505.200  2.855E-12
2505.400  2.863E-12
2505.600  2.871E-12
2505.800  2.783E-12
2506.000  2.839E-12
2506.200  2.865E-12
2506.400  2.855E-12
2506.600  2.826E-12
2506.800  2.817E-12
2507.000  2.801E-12
2507.200  2.783E-12
2507.400  2.824E-12
2507.600  2.829E-12
2507.800  2.790E-12
2508.000  2.808E-12
2508.200  2.811E-12
2508.400  2.817E-12
2508.600  2.839E-12
2508.800  2.789E-12
2509.000  2.743E-12
2509.200  2.780E-12
2509.400  2.793E-12
2509.600  2.801E-12
2509.800  2.594E-12
2510.000  2.717E-12
2510.200  2.812E-12
2510.400  2.857E-12
2510.600  2.869E-12
2510.800  2.866E-12
2511.000  2.832E-12
2511.200  2.803E-12
2511.400  2.805E-12
2511.600  2.735E-12
2511.800  2.761E-12
2512.000  2.744E-12
2512.200  2.644E-12
2512.400  2.659E-12
2512.600  2.494E-12
2512.800  2.275E-12
2513.000  2.792E-12
2513.200  2.746E-12
2513.400  2.815E-12
2513.600  2.816E-12
2513.800  2.830E-12
2514.000  2.844E-12
2514.200  2.825E-12
2514.400  2.807E-12
2514.600  2.804E-12
2514.800  2.820E-12
2515.000  2.789E-12
2515.200  2.709E-12
2515.400  2.801E-12
2515.600  2.809E-12
2515.800  2.810E-12
2516.000  2.823E-12
2516.200  2.830E-12
2516.400  2.875E-12
2516.600  2.811E-12
2516.800  2.265E-12
2517.000  2.764E-12
2517.200  2.789E-12
2517.400  2.787E-12
2517.600  2.806E-12
2517.800  2.809E-12
2518.000  2.767E-12
2518.200  2.743E-12
2518.400  2.783E-12
2518.600  2.830E-12
2518.800  2.748E-12
2519.000  2.796E-12
2519.200  2.880E-12
2519.400  2.879E-12
2519.600  2.849E-12
2519.800  2.710E-12
2520.000  2.802E-12
2520.200  2.791E-12
2520.400  2.708E-12
2520.600  2.773E-12
2520.800  2.773E-12
2521.000  2.768E-12
2521.200  2.805E-12
2521.400  2.733E-12
2521.600  2.736E-12
2521.800  2.735E-12
2522.000  2.769E-12
2522.200  2.765E-12
2522.400  2.701E-12
2522.600  2.717E-12
2522.800  2.767E-12
2523.000  2.695E-12
2523.200  2.775E-12
2523.400  2.814E-12
2523.600  2.798E-12
2523.800  2.776E-12
2524.000  2.840E-12
2524.200  2.839E-12
2524.400  2.779E-12
2524.600  2.814E-12
2524.800  2.796E-12
2525.000  2.801E-12
2525.200  2.786E-12
2525.400  2.765E-12
2525.600  2.796E-12
2525.800  2.724E-12
2526.000  2.697E-12
2526.200  2.737E-12
2526.400  2.744E-12
2526.600  2.741E-12
2526.800  2.705E-12
2527.000  2.642E-12
2527.200  2.732E-12
2527.400  2.821E-12
2527.600  2.831E-12
2527.800  2.654E-12
2528.000  2.767E-12
2528.200  2.754E-12
2528.400  2.721E-12
2528.600  2.420E-12
2528.800  2.790E-12
2529.000  2.785E-12
2529.200  2.765E-12
2529.400  2.735E-12
2529.600  2.748E-12
2529.800  2.748E-12
2530.000  2.702E-12
2530.200  2.704E-12
2530.400  2.737E-12
2530.600  2.735E-12
2530.800  2.734E-12
2531.000  2.665E-12
2531.200  2.793E-12
2531.400  2.795E-12
2531.600  2.801E-12
2531.800  2.582E-12
2532.000  2.736E-12
2532.200  2.736E-12
2532.400  2.726E-12
2532.600  2.706E-12
2532.800  2.720E-12
2533.000  2.716E-12
2533.200  2.765E-12
2533.400  2.763E-12
2533.600  2.733E-12
2533.800  2.738E-12
2534.000  2.739E-12
2534.200  2.725E-12
2534.400  2.574E-12
2534.600  2.747E-12
2534.800  2.722E-12
2535.000  2.681E-12
2535.200  2.686E-12
2535.400  2.778E-12
2535.600  2.740E-12
2535.800  2.731E-12
2536.000  2.736E-12
2536.200  2.606E-12
2536.400  2.762E-12
2536.600  2.770E-12
2536.800  2.767E-12
2537.000  2.734E-12
2537.200  2.795E-12
2537.400  2.724E-12
2537.600  2.636E-12
2537.800  2.690E-12
2538.000  2.705E-12
2538.200  2.678E-12
2538.400  2.525E-12
2538.600  2.578E-12
2538.800  2.660E-12
2539.000  2.606E-12
2539.200  2.618E-12
2539.400  2.419E-12
2539.600  2.375E-12
2539.800  2.657E-12
2540.000  2.722E-12
2540.200  2.693E-12
2540.400  2.701E-12
2540.600  2.702E-12
2540.800  2.318E-12
2541.000  2.702E-12
2541.200  2.741E-12
2541.400  2.568E-12
2541.600  2.690E-12
2541.800  2.658E-12
2542.000  2.684E-12
2542.200  2.684E-12
2542.400  2.677E-12
2542.600  2.484E-12
2542.800  2.674E-12
2543.000  2.666E-12
2543.200  2.622E-12
2543.400  2.630E-12
2543.600  2.697E-12
2543.800  2.669E-12
2544.000  2.655E-12
2544.200  2.425E-12
2544.400  2.668E-12
2544.600  2.707E-12
2544.800  2.714E-12
2545.000  2.688E-12
2545.200  2.692E-12
2545.400  2.757E-12
2545.600  2.726E-12
2545.800  2.589E-12
2546.000  2.664E-12
2546.200  2.677E-12
2546.400  2.570E-12
2546.600  2.605E-12
2546.800  2.585E-12
2547.000  2.630E-12
2547.200  2.644E-12
2547.400  2.619E-12
2547.600  2.656E-12
2547.800  2.706E-12
2548.000  2.679E-12
2548.200  2.604E-12
2548.400  2.640E-12
2548.600  2.698E-12
2548.800  2.703E-12
2549.000  2.616E-12
2549.200  2.678E-12
2549.400  2.424E-12
2549.600  2.542E-12
2549.800  2.491E-12
2550.000  2.624E-12
2550.200  2.530E-12
2550.400  2.638E-12
2550.600  2.620E-12
2550.800  2.545E-12
2551.000  2.670E-12
2551.200  2.672E-12
2551.400  2.577E-12
2551.600  2.536E-12
2551.800  2.567E-12
2552.000  2.561E-12
2552.200  2.671E-12
2552.400  2.714E-12
2552.600  2.703E-12
2552.800  2.683E-12
2553.000  2.692E-12
2553.200  2.698E-12
2553.400  2.719E-12
2553.600  2.714E-12
2553.800  2.711E-12
2554.000  2.714E-12
2554.200  2.670E-12
2554.400  2.620E-12
2554.600  2.693E-12
2554.800  2.669E-12
2555.000  2.664E-12
2555.200  2.731E-12
2555.400  2.728E-12
2555.600  2.663E-12
2555.800  2.601E-12
2556.000  2.630E-12
2556.200  2.614E-12
2556.400  2.684E-12
2556.600  2.693E-12
2556.800  2.645E-12
2557.000  2.610E-12
2557.200  2.668E-12
2557.400  2.663E-12
2557.600  2.733E-12
2557.800  2.744E-12
2558.000  2.689E-12
2558.200  2.692E-12
2558.400  2.657E-12
2558.600  2.574E-12
2558.800  2.655E-12
2559.000  2.666E-12
2559.200  2.681E-12
2559.400  2.633E-12
2559.600  2.686E-12
2559.800  2.603E-12
2560.000  2.591E-12
2560.200  2.639E-12
2560.400  2.645E-12
2560.600  2.525E-12
2560.800  2.610E-12
2561.000  2.603E-12
2561.200  2.621E-12
2561.400  2.653E-12
2561.600  2.819E-12
2561.800  2.828E-12
2562.000  2.637E-12
2562.200  2.606E-12
2562.400  2.592E-12
2562.600  2.670E-12
2562.800  2.697E-12
2563.000  2.619E-12
2563.200  2.551E-12
2563.400  2.581E-12
2563.600  2.602E-12
2563.800  2.633E-12
2564.000  2.577E-12
2564.200  2.045E-12
2564.400  2.540E-12
2564.600  2.600E-12
2564.800  2.584E-12
2565.000  2.575E-12
2565.200  2.617E-12
2565.400  2.625E-12
2565.600  2.608E-12
2565.800  2.636E-12
2566.000  2.630E-12
2566.200  2.502E-12
2566.400  2.640E-12
2566.600  2.652E-12
2566.800  2.583E-12
2567.000  2.529E-12
2567.200  2.527E-12
2567.400  2.584E-12
2567.600  2.570E-12
2567.800  2.627E-12
2568.000  2.616E-12
2568.200  2.557E-12
2568.400  2.507E-12
2568.600  2.627E-12
2568.800  2.609E-12
2569.000  2.566E-12
2569.200  2.573E-12
2569.400  2.617E-12
2569.600  2.524E-12
2569.800  2.610E-12
2570.000  2.609E-12
2570.200  2.626E-12
2570.400  2.649E-12
2570.600  2.581E-12
2570.800  2.664E-12
2571.000  2.654E-12
2571.200  2.668E-12
2571.400  2.611E-12
2571.600  2.587E-12
2571.800  2.615E-12
2572.000  2.581E-12
2572.200  2.628E-12
2572.400  2.628E-12
2572.600  2.586E-12
2572.800  2.606E-12
2573.000  2.602E-12
2573.200  2.623E-12
2573.400  2.626E-12
2573.600  2.585E-12
2573.800  2.559E-12
2574.000  2.596E-12
2574.200  2.610E-12
2574.400  2.612E-12
2574.600  2.612E-12
2574.800  2.657E-12
2575.000  2.567E-12
2575.200  2.512E-12
2575.400  2.504E-12
2575.600  2.394E-12
2575.800  2.536E-12
2576.000  2.614E-12
2576.200  2.617E-12
2576.400  2.591E-12
2576.600  2.592E-12
2576.800  2.499E-12
2577.000  2.474E-12
2577.200  2.336E-12
2577.400  2.556E-12
2577.600  2.505E-12
2577.800  2.577E-12
2578.000  2.602E-12
2578.200  2.539E-12
2578.400  2.506E-12
2578.600  2.357E-12
2578.800  2.547E-12
2579.000  2.566E-12
2579.200  2.540E-12
2579.400  2.574E-12
2579.600  2.583E-12
2579.800  2.546E-12
2580.000  2.549E-12
2580.200  2.581E-12
2580.400  2.605E-12
2580.600  2.566E-12
2580.800  2.557E-12
2581.000  2.527E-12
2581.200  2.365E-12
2581.400  2.556E-12
2581.600  2.562E-12
2581.800  2.578E-12
2582.000  2.598E-12
2582.200  2.610E-12
2582.400  2.609E-12
2582.600  2.569E-12
2582.800  2.567E-12
2583.000  2.551E-12
2583.200  2.386E-12
2583.400  2.526E-12
2583.600  2.531E-12
2583.800  2.565E-12
2584.000  2.716E-12
2584.200  2.581E-12
2584.400  2.491E-12
2584.600  2.537E-12
2584.800  2.475E-12
2585.000  2.558E-12
2585.200  2.537E-12
2585.400  2.537E-12
2585.600  2.581E-12
2585.800  2.520E-12
2586.000  2.559E-12
2586.200  2.532E-12
2586.400  2.504E-12
2586.600  2.008E-12
2586.800  2.504E-12
2587.000  2.585E-12
2587.200  2.590E-12
2587.400  2.545E-12
2587.600  2.585E-12
2587.800  2.588E-12
2588.000  2.499E-12
2588.200  2.373E-12
2588.400  2.549E-12
2588.600  2.525E-12
2588.800  2.353E-12
2589.000  2.520E-12
2589.200  2.560E-12
2589.400  2.570E-12
2589.600  2.566E-12
2589.800  2.520E-12
2590.000  2.539E-12
2590.200  2.527E-12
2590.400  2.553E-12
2590.600  2.510E-12
2590.800  2.516E-12
2591.000  2.564E-12
2591.200  2.558E-12
2591.400  2.531E-12
2591.600  2.517E-12
2591.800  2.536E-12
2592.000  2.537E-12
2592.200  2.511E-12
2592.400  2.410E-12
2592.600  2.449E-12
2592.800  2.593E-12
2593.000  2.615E-12
2593.200  2.544E-12
2593.400  2.501E-12
2593.600  2.431E-12
2593.800  2.425E-12
2594.000  2.521E-12
2594.200  2.571E-12
2594.400  2.479E-12
2594.600  2.326E-12
2594.800  2.480E-12
2595.000  2.544E-12
2595.200  2.521E-12
2595.400  2.528E-12
2595.600  2.521E-12
2595.800  2.481E-12
2596.000  2.396E-12
2596.200  2.460E-12
2596.400  2.383E-12
2596.600  2.515E-12
2596.800  2.550E-12
2597.000  2.546E-12
2597.200  2.562E-12
2597.400  2.565E-12
2597.600  2.501E-12
2597.800  2.473E-12
2598.000  2.566E-12
2598.200  2.550E-12
2598.400  2.537E-12
2598.600  2.514E-12
2598.800  2.538E-12
2599.000  2.413E-12
2599.200  2.459E-12
2599.400  2.512E-12
2599.600  2.491E-12
2599.800  2.490E-12
2600.000  2.444E-12
2600.200  1.114E-12
2600.400  2.473E-12
2600.600  2.504E-12
2600.800  2.510E-12
2601.000  2.560E-12
2601.200  2.519E-12
2601.400  2.517E-12
2601.600  2.519E-12
2601.800  2.507E-12
2602.000  2.534E-12
2602.200  2.528E-12
2602.400  2.542E-12
2602.600  2.511E-12
2602.800  2.530E-12
2603.000  2.566E-12
2603.200  2.496E-12
2603.400  2.486E-12
2603.600  2.495E-12
2603.800  2.497E-12
2604.000  2.527E-12
2604.200  2.527E-12
2604.400  2.514E-12
2604.600  2.519E-12
2604.800  2.514E-12
2605.000  2.523E-12
2605.200  2.540E-12
2605.400  2.528E-12
2605.600  2.505E-12
2605.800  2.452E-12
2606.000  2.485E-12
2606.200  2.520E-12
2606.400  2.414E-12
2606.600  2.491E-12
2606.800  2.497E-12
2607.000  2.468E-12
2607.200  2.469E-12
2607.400  2.400E-12
2607.600  2.457E-12
2607.800  2.366E-12
2608.000  2.509E-12
2608.200  2.532E-12
2608.400  2.486E-12
2608.600  2.465E-12
2608.800  2.410E-12
2609.000  2.542E-12
2609.200  2.549E-12
2609.400  2.433E-12
2609.600  2.468E-12
2609.800  2.479E-12
2610.000  2.478E-12
2610.200  2.481E-12
2610.400  2.485E-12
2610.600  2.448E-12
2610.800  2.480E-12
2611.000  2.455E-12
2611.200  2.490E-12
2611.400  2.492E-12
2611.600  2.476E-12
2611.800  2.436E-12
2612.000  2.487E-12
2612.200  2.490E-12
2612.400  2.456E-12
2612.600  2.336E-12
2612.800  2.440E-12
2613.000  2.410E-12
2613.200  2.492E-12
2613.400  2.472E-12
2613.600  2.540E-12
2613.800  2.531E-12
2614.000  2.518E-12
2614.200  2.522E-12
2614.400  2.512E-12
2614.600  2.360E-12
2614.800  2.465E-12
2615.000  2.462E-12
2615.200  2.497E-12
2615.400  2.512E-12
2615.600  2.462E-12
2615.800  2.448E-12
2616.000  2.471E-12
2616.200  2.483E-12
2616.400  2.525E-12
2616.600  2.509E-12
2616.800  2.507E-12
2617.000  2.542E-12
2617.200  2.452E-12
2617.400  2.474E-12
2617.600  2.496E-12
2617.800  2.450E-12
2618.000  2.456E-12
2618.200  2.458E-12
2618.400  2.358E-12
2618.600  2.452E-12
2618.800  2.425E-12
2619.000  2.471E-12
2619.200  2.496E-12
2619.400  2.514E-12
2619.600  2.507E-12
2619.800  2.474E-12
2620.000  2.455E-12
2620.200  2.477E-12
2620.400  2.483E-12
2620.600  2.496E-12
2620.800  2.519E-12
2621.000  2.417E-12
2621.200  2.387E-12
2621.400  2.327E-12
2621.600  2.485E-12
2621.800  2.480E-12
2622.000  2.488E-12
2622.200  2.475E-12
2622.400  2.456E-12
2622.600  2.461E-12
2622.800  2.472E-12
2623.000  2.468E-12
2623.200  2.475E-12
2623.400  2.491E-12
2623.600  2.464E-12
2623.800  2.482E-12
2624.000  2.435E-12
2624.200  2.434E-12
2624.400  2.385E-12
2624.600  2.417E-12
2624.800  2.434E-12
2625.000  2.512E-12
2625.200  2.439E-12
2625.400  2.450E-12
2625.600  2.441E-12
2625.800  2.398E-12
2626.000  2.376E-12
2626.200  2.286E-12
2626.400  2.124E-12
2626.600  2.423E-12
2626.800  2.370E-12
2627.000  2.457E-12
2627.200  2.451E-12
2627.400  2.429E-12
2627.600  2.455E-12
2627.800  2.448E-12
2628.000  2.440E-12
2628.200  2.495E-12
2628.400  2.433E-12
2628.600  2.505E-12
2628.800  2.523E-12
2629.000  2.414E-12
2629.200  2.355E-12
2629.400  2.382E-12
2629.600  2.432E-12
2629.800  2.499E-12
2630.000  2.454E-12
2630.200  2.431E-12
2630.400  2.375E-12
2630.600  2.420E-12
2630.800  2.413E-12
2631.000  2.400E-12
2631.200  2.397E-12
2631.400  2.417E-12
2631.600  2.402E-12
2631.800  2.191E-12
2632.000  2.271E-12
2632.200  2.303E-12
2632.400  2.311E-12
2632.600  2.441E-12
2632.800  2.449E-12
2633.000  2.411E-12
2633.200  2.437E-12
2633.400  2.442E-12
2633.600  2.456E-12
2633.800  2.462E-12
2634.000  2.432E-12
2634.200  2.444E-12
2634.400  2.399E-12
2634.600  2.379E-12
2634.800  2.399E-12
2635.000  2.493E-12
2635.200  2.439E-12
2635.400  2.432E-12
2635.600  2.391E-12
2635.800  2.436E-12
2636.000  2.425E-12
2636.200  2.418E-12
2636.400  2.439E-12
2636.600  2.486E-12
2636.800  2.474E-12
2637.000  2.463E-12
2637.200  2.457E-12
2637.400  2.414E-12
2637.600  2.427E-12
2637.800  2.411E-12
2638.000  2.438E-12
2638.200  2.434E-12
2638.400  2.379E-12
2638.600  2.431E-12
2638.800  2.427E-12
2639.000  2.423E-12
2639.200  2.460E-12
2639.400  2.458E-12
2639.600  2.428E-12
2639.800  2.425E-12
2640.000  2.445E-12
2640.200  2.405E-12
2640.400  2.440E-12
2640.600  2.406E-12
2640.800  2.478E-12
2641.000  2.486E-12
2641.200  2.467E-12
2641.400  2.375E-12
2641.600  2.395E-12
2641.800  2.435E-12
2642.000  2.415E-12
2642.200  2.329E-12
2642.400  2.389E-12
2642.600  2.420E-12
2642.800  2.434E-12
2643.000  2.406E-12
2643.200  2.439E-12
2643.400  2.418E-12
2643.600  2.446E-12
2643.800  2.441E-12
2644.000  2.449E-12
2644.200  2.421E-12
2644.400  2.416E-12
2644.600  2.390E-12
2644.800  2.411E-12
2645.000  2.426E-12
2645.200  2.439E-12
2645.400  2.425E-12
2645.600  2.438E-12
2645.800  2.428E-12
2646.000  2.411E-12
2646.200  2.358E-12
2646.400  2.429E-12
2646.600  2.367E-12
2646.800  2.437E-12
2647.000  2.438E-12
2647.200  2.436E-12
2647.400  2.389E-12
2647.600  2.381E-12
2647.800  2.426E-12
2648.000  2.384E-12
2648.200  2.365E-12
2648.400  2.341E-12
2648.600  2.357E-12
2648.800  2.381E-12
2649.000  2.373E-12
2649.200  2.411E-12
2649.400  2.424E-12
2649.600  2.381E-12
2649.800  2.379E-12
2650.000  2.385E-12
2650.200  2.358E-12
2650.400  2.396E-12
2650.600  2.389E-12
2650.800  2.400E-12
2651.000  2.409E-12
2651.200  2.386E-12
2651.400  2.405E-12
2651.600  2.434E-12
2651.800  2.449E-12
2652.000  2.398E-12
2652.200  2.407E-12
2652.400  2.391E-12
2652.600  2.367E-12
2652.800  2.398E-12
2653.000  2.434E-12
2653.200  2.425E-12
2653.400  2.394E-12
2653.600  2.255E-12
2653.800  2.440E-12
2654.000  2.434E-12
2654.200  2.370E-12
2654.400  2.390E-12
2654.600  2.393E-12
2654.800  2.382E-12
2655.000  2.384E-12
2655.200  2.401E-12
2655.400  2.404E-12
2655.600  2.386E-12
2655.800  2.376E-12
2656.000  2.297E-12
2656.200  2.349E-12
2656.400  2.392E-12
2656.600  2.354E-12
2656.800  2.337E-12
2657.000  2.319E-12
2657.200  2.364E-12
2657.400  2.356E-12
2657.600  2.391E-12
2657.800  2.403E-12
2658.000  2.381E-12
2658.200  2.374E-12
2658.400  2.365E-12
2658.600  2.361E-12
2658.800  2.343E-12
2659.000  2.329E-12
2659.200  2.374E-12
2659.400  2.382E-12
2659.600  2.377E-12
2659.800  2.301E-12
2660.000  2.291E-12
2660.200  2.364E-12
2660.400  2.358E-12
2660.600  2.382E-12
2660.800  2.372E-12
2661.000  2.341E-12
2661.200  2.344E-12
2661.400  2.337E-12
2661.600  2.335E-12
2661.800  2.310E-12
2662.000  2.306E-12
2662.200  2.390E-12
2662.400  2.401E-12
2662.600  2.328E-12
2662.800  2.320E-12
2663.000  2.340E-12
2663.200  2.324E-12
2663.400  2.363E-12
2663.600  2.381E-12
2663.800  2.364E-12
2664.000  2.344E-12
2664.200  2.303E-12
2664.400  2.367E-12
2664.600  2.344E-12
2664.800  2.337E-12
2665.000  2.332E-12
2665.200  2.319E-12
2665.400  2.276E-12
2665.600  2.314E-12
2665.800  2.352E-12
2666.000  2.341E-12
2666.200  2.266E-12
2666.400  2.324E-12
2666.600  2.346E-12
2666.800  2.333E-12
2667.000  2.342E-12
2667.200  2.306E-12
2667.400  2.230E-12
2667.600  2.304E-12
2667.800  2.312E-12
2668.000  2.284E-12
2668.200  2.349E-12
2668.400  2.353E-12
2668.600  2.328E-12
2668.800  2.342E-12
2669.000  2.335E-12
2669.200  2.340E-12
2669.400  2.339E-12
2669.600  2.308E-12
2669.800  2.318E-12
2670.000  2.343E-12
2670.200  2.281E-12
2670.400  2.280E-12
2670.600  2.311E-12
2670.800  2.291E-12
2671.000  2.346E-12
2671.200  2.348E-12
2671.400  2.361E-12
2671.600  2.310E-12
2671.800  2.317E-12
2672.000  2.372E-12
2672.200  2.343E-12
2672.400  2.319E-12
2672.600  2.261E-12
2672.800  2.313E-12
2673.000  2.313E-12
2673.200  2.317E-12
2673.400  2.253E-12
2673.600  2.290E-12
2673.800  2.325E-12
2674.000  2.329E-12
2674.200  2.324E-12
2674.400  2.323E-12
2674.600  2.359E-12
2674.800  2.365E-12
2675.000  2.336E-12
2675.200  2.298E-12
2675.400  2.253E-12
2675.600  2.301E-12
2675.800  2.302E-12
2676.000  2.314E-12
2676.200  2.321E-12
2676.400  2.300E-12
2676.600  2.298E-12
2676.800  2.297E-12
2677.000  2.313E-12
2677.200  2.257E-12
2677.400  2.258E-12
2677.600  2.281E-12
2677.800  2.298E-12
2678.000  2.263E-12
2678.200  2.270E-12
2678.400  2.299E-12
2678.600  2.282E-12
2678.800  2.294E-12
2679.000  2.303E-12
2679.200  2.328E-12
2679.400  2.345E-12
2679.600  2.267E-12
2679.800  2.293E-12
2680.000  2.283E-12
2680.200  2.308E-12
2680.400  2.298E-12
2680.600  2.261E-12
2680.800  2.282E-12
2681.000  2.279E-12
2681.200  2.317E-12
2681.400  2.295E-12
2681.600  2.274E-12
2681.800  2.298E-12
2682.000  2.240E-12
2682.200  2.228E-12
2682.400  2.285E-12
2682.600  2.281E-12
2682.800  2.331E-12
2683.000  2.223E-12
2683.200  2.256E-12
2683.400  2.306E-12
2683.600  2.339E-12
2683.800  2.312E-12
2684.000  2.306E-12
2684.200  2.277E-12
2684.400  2.276E-12
2684.600  2.286E-12
2684.800  2.285E-12
2685.000  2.282E-12
2685.200  2.297E-12
2685.400  2.253E-12
2685.600  2.193E-12
2685.800  2.276E-12
2686.000  2.263E-12
2686.200  2.275E-12
2686.400  2.269E-12
2686.600  2.286E-12
2686.800  2.290E-12
2687.000  2.275E-12
2687.200  2.300E-12
2687.400  2.318E-12
2687.600  2.265E-12
2687.800  2.298E-12
2688.000  2.284E-12
2688.200  2.273E-12
2688.400  2.251E-12
2688.600  2.285E-12
2688.800  2.293E-12
2689.000  2.234E-12
2689.200  2.235E-12
2689.400  2.302E-12
2689.600  2.307E-12
2689.800  2.278E-12
2690.000  2.283E-12
2690.200  2.271E-12
2690.400  2.263E-12
2690.600  2.229E-12
2690.800  2.315E-12
2691.000  2.317E-12
2691.200  2.240E-12
2691.400  2.250E-12
2691.600  2.245E-12
2691.800  2.243E-12
2692.000  2.255E-12
2692.200  2.267E-12
2692.400  2.241E-12
2692.600  2.230E-12
2692.800  2.225E-12
2693.000  2.240E-12
2693.200  2.237E-12
2693.400  2.169E-12
2693.600  2.237E-12
2693.800  2.232E-12
2694.000  2.245E-12
2694.200  2.243E-12
2694.400  2.280E-12
2694.600  2.263E-12
2694.800  2.252E-12
2695.000  2.253E-12
2695.200  2.264E-12
2695.400  2.237E-12
2695.600  2.278E-12
2695.800  2.259E-12
2696.000  1.938E-12
2696.200  2.257E-12
2696.400  2.252E-12
2696.600  2.233E-12
2696.800  2.253E-12
2697.000  2.231E-12
2697.200  2.239E-12
2697.400  2.193E-12
2697.600  2.101E-12
2697.800  2.158E-12
2698.000  2.170E-12
2698.200  2.206E-12
2698.400  2.274E-12
2698.600  2.272E-12
2698.800  2.255E-12
2699.000  2.187E-12
2699.200  2.176E-12
2699.400  2.230E-12
2699.600  2.251E-12
2699.800  2.137E-12
2700.000  2.216E-12
2700.200  2.238E-12
2700.400  2.272E-12
2700.600  2.238E-12
2700.800  2.174E-12
2701.000  2.236E-12
2701.200  2.206E-12
2701.400  2.273E-12
2701.600  2.243E-12
2701.800  2.248E-12
2702.000  2.240E-12
2702.200  2.244E-12
2702.400  2.192E-12
2702.600  2.087E-12
2702.800  2.217E-12
2703.000  2.250E-12
2703.200  2.239E-12
2703.400  2.224E-12
2703.600  2.230E-12
2703.800  2.190E-12
2704.000  2.226E-12
2704.200  2.242E-12
2704.400  2.195E-12
2704.600  2.177E-12
2704.800  2.140E-12
2705.000  2.187E-12
2705.200  2.156E-12
2705.400  2.243E-12
2705.600  2.243E-12
2705.800  2.211E-12
2706.000  2.209E-12
2706.200  2.234E-12
2706.400  2.215E-12
2706.600  2.151E-12
2706.800  2.231E-12
2707.000  2.246E-12
2707.200  2.227E-12
2707.400  2.218E-12
2707.600  2.269E-12
2707.800  2.268E-12
2708.000  2.224E-12
2708.200  2.226E-12
2708.400  2.182E-12
2708.600  2.179E-12
2708.800  2.265E-12
2709.000  2.290E-12
2709.200  2.234E-12
2709.400  2.175E-12
2709.600  2.171E-12
2709.800  2.170E-12
2710.000  2.138E-12
2710.200  2.213E-12
2710.400  2.252E-12
2710.600  2.192E-12
2710.800  2.301E-12
2711.000  2.303E-12
2711.200  2.222E-12
2711.400  2.223E-12
2711.600  2.211E-12
2711.800  2.197E-12
2712.000  2.220E-12
2712.200  2.203E-12
2712.400  2.171E-12
2712.600  2.100E-12
2712.800  2.170E-12
2713.000  2.159E-12
2713.200  2.267E-12
2713.400  2.273E-12
2713.600  2.273E-12
2713.800  2.252E-12
2714.000  2.249E-12
2714.200  2.252E-12
2714.400  2.232E-12
2714.600  2.212E-12
2714.800  2.194E-12
2715.000  2.206E-12
2715.200  2.179E-12
2715.400  2.258E-12
2715.600  2.245E-12
2715.800  2.250E-12
2716.000  2.243E-12
2716.200  2.226E-12
2716.400  2.224E-12
2716.600  2.187E-12
2716.800  2.226E-12
2717.000  2.210E-12
2717.200  2.228E-12
2717.400  2.224E-12
2717.600  2.231E-12
2717.800  2.215E-12
2718.000  2.221E-12
2718.200  2.231E-12
2718.400  2.248E-12
2718.600  2.208E-12
2718.800  2.263E-12
2719.000  2.262E-12
2719.200  2.199E-12
2719.400  2.205E-12
2719.600  2.235E-12
2719.800  2.204E-12
2720.000  2.205E-12
2720.200  2.240E-12
2720.400  2.236E-12
2720.600  2.168E-12
2720.800  2.191E-12
2721.000  2.143E-12
2721.200  2.173E-12
2721.400  2.182E-12
2721.600  2.179E-12
2721.800  2.196E-12
2722.000  2.204E-12
2722.200  2.224E-12
2722.400  2.220E-12
2722.600  2.238E-12
2722.800  2.226E-12
2723.000  2.235E-12
2723.200  2.227E-12
2723.400  2.220E-12
2723.600  2.232E-12
2723.800  2.226E-12
2724.000  2.204E-12
2724.200  2.183E-12
2724.400  2.166E-12
2724.600  2.214E-12
2724.800  2.213E-12
2725.000  2.234E-12
2725.200  2.207E-12
2725.400  2.227E-12
2725.600  2.213E-12
2725.800  2.182E-12
2726.000  2.190E-12
2726.200  2.188E-12
2726.400  2.230E-12
2726.600  2.204E-12
2726.800  2.173E-12
2727.000  2.235E-12
2727.200  2.234E-12
2727.400  2.205E-12
2727.600  2.181E-12
2727.800  2.209E-12
2728.000  2.202E-12
2728.200  2.111E-12
2728.400  2.121E-12
2728.600  2.177E-12
2728.800  2.206E-12
2729.000  2.185E-12
2729.200  2.150E-12
2729.400  2.176E-12
2729.600  2.155E-12
2729.800  2.184E-12
2730.000  2.196E-12
2730.200  2.217E-12
2730.400  2.152E-12
2730.600  2.189E-12
2730.800  2.168E-12
2731.000  2.155E-12
2731.200  2.183E-12
2731.400  2.201E-12
2731.600  2.132E-12
2731.800  2.190E-12
2732.000  2.187E-12
2732.200  2.166E-12
2732.400  2.161E-12
2732.600  2.177E-12
2732.800  2.158E-12
2733.000  2.192E-12
2733.200  2.178E-12
2733.400  2.156E-12
2733.600  2.188E-12
2733.800  2.148E-12
2734.000  2.120E-12
2734.200  2.141E-12
2734.400  2.155E-12
2734.600  2.136E-12
2734.800  2.062E-12
2735.000  2.184E-12
2735.200  2.180E-12
2735.400  2.148E-12
2735.600  2.122E-12
2735.800  2.179E-12
2736.000  2.175E-12
2736.200  2.183E-12
2736.400  2.209E-12
2736.600  2.162E-12
2736.800  2.186E-12
2737.000  2.164E-12
2737.200  2.143E-12
2737.400  2.147E-12
2737.600  2.122E-12
2737.800  2.098E-12
2738.000  2.146E-12
2738.200  2.168E-12
2738.400  2.167E-12
2738.600  2.131E-12
2738.800  2.137E-12
2739.000  2.158E-12
2739.200  2.154E-12
2739.400  2.166E-12
2739.600  2.164E-12
2739.800  2.130E-12
2740.000  2.156E-12
2740.200  2.129E-12
2740.400  2.016E-12
2740.600  2.104E-12
2740.800  2.135E-12
2741.000  2.134E-12
2741.200  2.147E-12
2741.400  2.135E-12
2741.600  2.088E-12
2741.800  2.151E-12
2742.000  2.142E-12
2742.200  2.140E-12
2742.400  2.147E-12
2742.600  2.135E-12
2742.800  2.110E-12
2743.000  2.134E-12
2743.200  2.139E-12
2743.400  2.133E-12
2743.600  2.127E-12
2743.800  2.123E-12
2744.000  1.964E-12
2744.200  2.147E-12
2744.400  2.139E-12
2744.600  2.191E-12
2744.800  2.171E-12
2745.000  2.143E-12
2745.200  2.126E-12
2745.400  2.129E-12
2745.600  2.167E-12
2745.800  2.124E-12
2746.000  2.126E-12
2746.200  2.143E-12
2746.400  2.111E-12
2746.600  2.166E-12
2746.800  2.092E-12
2747.000  2.099E-12
2747.200  2.031E-12
2747.400  2.127E-12
2747.600  2.149E-12
2747.800  1.858E-12
2748.000  1.867E-12
2748.200  2.109E-12
2748.400  2.109E-12
2748.600  2.143E-12
2748.800  2.132E-12
2749.000  2.139E-12
2749.200  2.138E-12
2749.400  2.151E-12
2749.600  2.168E-12
2749.800  2.093E-12
2750.000  1.858E-12
2750.200  1.936E-12
2750.400  2.135E-12
2750.600  2.154E-12
2750.800  2.189E-12
2751.000  2.133E-12
2751.200  2.139E-12
2751.400  2.131E-12
2751.600  2.133E-12
2751.800  2.136E-12
2752.000  2.097E-12
2752.200  2.106E-12
2752.400  2.085E-12
2752.600  2.085E-12
2752.800  2.072E-12
2753.000  2.143E-12
2753.200  2.143E-12
2753.400  2.156E-12
2753.600  2.143E-12
2753.800  2.116E-12
2754.000  2.073E-12
2754.200  2.131E-12
2754.400  2.143E-12
2754.600  2.112E-12
2754.800  2.099E-12
2755.000  2.115E-12
2755.200  2.119E-12
2755.400  2.058E-12
2755.600  2.120E-12
2755.800  2.140E-12
2756.000  2.121E-12
2756.200  2.101E-12
2756.400  2.091E-12
2756.600  2.017E-12
2756.800  2.124E-12
2757.000  2.125E-12
2757.200  2.132E-12
2757.400  2.088E-12
2757.600  2.102E-12
2757.800  2.099E-12
2758.000  2.105E-12
2758.200  2.086E-12
2758.400  2.090E-12
2758.600  2.133E-12
2758.800  2.121E-12
2759.000  2.082E-12
2759.200  2.081E-12
2759.400  2.076E-12
2759.600  2.061E-12
2759.800  2.065E-12
2760.000  2.109E-12
2760.200  2.065E-12
2760.400  2.084E-12
2760.600  2.093E-12
2760.800  2.101E-12
2761.000  2.116E-12
2761.200  2.089E-12
2761.400  2.093E-12
2761.600  2.082E-12
2761.800  2.075E-12
2762.000  2.134E-12
2762.200  2.153E-12
2762.400  2.142E-12
2762.600  2.103E-12
2762.800  2.074E-12
2763.000  2.122E-12
2763.200  2.110E-12
2763.400  2.073E-12
2763.600  2.079E-12
2763.800  2.066E-12
2764.000  2.086E-12
2764.200  2.108E-12
2764.400  2.094E-12
2764.600  2.099E-12
2764.800  2.116E-12
2765.000  2.113E-12
2765.200  2.106E-12
2765.400  2.108E-12
2765.600  2.177E-12
2765.800  2.154E-12
2766.000  2.115E-12
2766.200  2.075E-12
2766.400  2.085E-12
2766.600  2.089E-12
2766.800  2.071E-12
2767.000  2.069E-12
2767.200  2.069E-12
2767.400  2.044E-12
2767.600  2.093E-12
2767.800  2.091E-12
2768.000  2.092E-12
2768.200  2.078E-12
2768.400  2.084E-12
2768.600  2.103E-12
2768.800  2.060E-12
2769.000  2.058E-12
2769.200  2.106E-12
2769.400  2.106E-12
2769.600  2.036E-12
2769.800  2.066E-12
2770.000  2.026E-12
2770.200  2.108E-12
2770.400  2.124E-12
2770.600  2.090E-12
2770.800  2.127E-12
2771.000  2.107E-12
2771.200  2.100E-12
2771.400  2.074E-12
2771.600  2.109E-12
2771.800  2.109E-12
2772.000  2.088E-12
2772.200  2.070E-12
2772.400  2.101E-12
2772.600  2.106E-12
2772.800  2.065E-12
2773.000  2.098E-12
2773.200  2.107E-12
2773.400  2.106E-12
2773.600  2.089E-12
2773.800  2.042E-12
2774.000  2.061E-12
2774.200  2.083E-12
2774.400  2.101E-12
2774.600  2.126E-12
2774.800  2.107E-12
2775.000  2.079E-12
2775.200  2.083E-12
2775.400  2.080E-12
2775.600  2.095E-12
2775.800  2.080E-12
2776.000  2.068E-12
2776.200  2.088E-12
2776.400  2.108E-12
2776.600  2.069E-12
2776.800  2.075E-12
2777.000  2.082E-12
2777.200  2.091E-12
2777.400  2.074E-12
2777.600  2.079E-12
2777.800  2.084E-12
2778.000  2.086E-12
2778.200  2.078E-12
2778.400  2.075E-12
2778.600  2.066E-12
2778.800  2.063E-12
2779.000  2.072E-12
2779.200  2.043E-12
2779.400  2.061E-12
2779.600  2.057E-12
2779.800  2.038E-12
2780.000  2.051E-12
2780.200  1.918E-12
2780.400  2.036E-12
2780.600  2.041E-12
2780.800  2.083E-12
2781.000  2.087E-12
2781.200  2.057E-12
2781.400  2.055E-12
2781.600  2.030E-12
2781.800  2.015E-12
2782.000  2.078E-12
2782.200  2.110E-12
2782.400  2.115E-12
2782.600  2.109E-12
2782.800  2.043E-12
2783.000  2.090E-12
2783.200  2.068E-12
2783.400  2.087E-12
2783.600  2.086E-12
2783.800  2.054E-12
2784.000  2.049E-12
2784.200  2.041E-12
2784.400  2.012E-12
2784.600  1.973E-12
2784.800  2.047E-12
2785.000  2.055E-12
2785.200  2.043E-12
2785.400  2.046E-12
2785.600  2.042E-12
2785.800  2.063E-12
2786.000  2.011E-12
2786.200  2.037E-12
2786.400  1.997E-12
2786.600  2.017E-12
2786.800  2.027E-12
2787.000  2.044E-12
2787.200  2.029E-12
2787.400  2.048E-12
2787.600  2.072E-12
2787.800  2.048E-12
2788.000  2.028E-12
2788.200  2.025E-12
2788.400  2.059E-12
2788.600  2.069E-12
2788.800  2.075E-12
2789.000  2.031E-12
2789.200  2.037E-12
2789.400  2.051E-12
2789.600  2.053E-12
2789.800  2.026E-12
2790.000  2.046E-12
2790.200  2.005E-12
2790.400  2.006E-12
2790.600  2.058E-12
2790.800  2.054E-12
2791.000  2.048E-12
2791.200  2.085E-12
2791.400  2.011E-12
2791.600  1.868E-12
2791.800  2.032E-12
2792.000  2.041E-12
2792.200  2.031E-12
2792.400  2.026E-12
2792.600  2.054E-12
2792.800  2.045E-12
2793.000  2.024E-12
2793.200  2.023E-12
2793.400  2.011E-12
2793.600  2.010E-12
2793.800  2.039E-12
2794.000  2.087E-12
2794.200  2.065E-12
2794.400  2.071E-12
2794.600  2.027E-12
2794.800  2.054E-12
2795.000  2.033E-12
2795.200  2.038E-12
2795.400  2.043E-12
2795.600  2.050E-12
2795.800  2.041E-12
2796.000  1.995E-12
2796.200  1.864E-12
2796.400  4.887E-13
2796.600  1.933E-12
2796.800  2.007E-12
2797.000  2.017E-12
2797.200  1.988E-12
2797.400  2.001E-12
2797.600  1.992E-12
2797.800  2.020E-12
2798.000  2.019E-12
2798.200  2.020E-12
2798.400  2.012E-12
2798.600  2.011E-12
2798.800  1.659E-12
2799.000  1.981E-12
2799.200  1.981E-12
2799.400  1.997E-12
2799.600  1.999E-12
2799.800  1.976E-12
2800.000  1.984E-12
2800.200  2.018E-12
2800.400  2.049E-12
2800.600  2.034E-12
2800.800  2.003E-12
2801.000  2.011E-12
2801.200  2.012E-12
2801.400  2.012E-12
2801.600  1.990E-12
2801.800  2.003E-12
2802.000  1.981E-12
2802.200  2.038E-12
2802.400  2.036E-12
2802.600  2.037E-12
2802.800  2.048E-12
2803.000  2.019E-12
2803.200  2.011E-12
2803.400  1.869E-12
2803.600  8.305E-13
2803.800  1.948E-12
2804.000  2.008E-12
2804.200  1.982E-12
2804.400  2.018E-12
2804.600  2.031E-12
2804.800  2.038E-12
2805.000  2.031E-12
2805.200  2.024E-12
2805.400  1.986E-12
2805.600  2.024E-12
2805.800  2.023E-12
2806.000  2.049E-12
2806.200  2.025E-12
2806.400  1.975E-12
2806.600  2.004E-12
2806.800  1.992E-12
2807.000  2.022E-12
2807.200  2.019E-12
2807.400  2.012E-12
2807.600  2.045E-12
2807.800  2.031E-12
2808.000  2.025E-12
2808.200  1.994E-12
2808.400  1.981E-12
2808.600  2.043E-12
2808.800  2.041E-12
2809.000  2.055E-12
2809.200  2.032E-12
2809.400  2.020E-12
2809.600  2.011E-12
2809.800  1.990E-12
2810.000  1.963E-12
2810.200  1.978E-12
2810.400  1.994E-12
2810.600  2.019E-12
2810.800  2.019E-12
2811.000  1.999E-12
2811.200  2.018E-12
2811.400  1.995E-12
2811.600  2.018E-12
2811.800  2.010E-12
2812.000  2.002E-12
2812.200  2.017E-12
2812.400  2.034E-12
2812.600  1.996E-12
2812.800  1.989E-12
2813.000  2.008E-12
2813.200  2.012E-12
2813.400  1.977E-12
2813.600  1.970E-12
2813.800  1.995E-12
2814.000  1.931E-12
2814.200  1.978E-12
2814.400  1.978E-12
2814.600  1.990E-12
2814.800  1.957E-12
2815.000  1.996E-12
2815.200  1.984E-12
2815.400  1.974E-12
2815.600  1.997E-12
2815.800  1.982E-12
2816.000  1.966E-12
2816.200  1.967E-12
2816.400  1.986E-12
2816.600  1.999E-12
2816.800  1.994E-12
2817.000  1.972E-12
2817.200  1.977E-12
2817.400  1.991E-12
2817.600  1.996E-12
2817.800  1.953E-12
2818.000  2.000E-12
2818.200  2.003E-12
2818.400  1.984E-12
2818.600  1.967E-12
2818.800  1.966E-12
2819.000  1.945E-12
2819.200  1.947E-12
2819.400  1.956E-12
2819.600  1.946E-12
2819.800  1.914E-12
2820.000  1.989E-12
2820.200  1.999E-12
2820.400  1.938E-12
2820.600  1.945E-12
2820.800  1.950E-12
2821.000  1.954E-12
2821.200  1.945E-12
2821.400  1.957E-12
2821.600  1.957E-12
2821.800  1.971E-12
2822.000  1.976E-12
2822.200  1.999E-12
2822.400  1.992E-12
2822.600  1.972E-12
2822.800  1.964E-12
2823.000  1.925E-12
2823.200  1.955E-12
2823.400  1.968E-12
2823.600  1.992E-12
2823.800  1.968E-12
2824.000  1.987E-12
2824.200  1.959E-12
2824.400  1.959E-12
2824.600  1.942E-12
2824.800  1.945E-12
2825.000  1.960E-12
2825.200  1.934E-12
2825.400  1.961E-12
2825.600  1.981E-12
2825.800  1.979E-12
2826.000  1.981E-12
2826.200  1.993E-12
2826.400  1.964E-12
2826.600  1.930E-12
2826.800  1.882E-12
2827.000  1.970E-12
2827.200  1.961E-12
2827.400  1.929E-12
2827.600  1.942E-12
2827.800  1.939E-12
2828.000  1.998E-12
2828.200  1.995E-12
2828.400  1.974E-12
2828.600  1.966E-12
2828.800  1.956E-12
2829.000  1.957E-12
2829.200  1.961E-12
2829.400  1.926E-12
2829.600  1.893E-12
2829.800  1.893E-12
2830.000  1.874E-12
2830.200  1.917E-12
2830.400  1.925E-12
2830.600  1.919E-12
2830.800  1.918E-12
2831.000  1.917E-12
2831.200  1.911E-12
2831.400  1.922E-12
2831.600  1.930E-12
2831.800  1.948E-12
2832.000  1.952E-12
2832.200  1.939E-12
2832.400  1.914E-12
2832.600  1.972E-12
2832.800  1.949E-12
2833.000  1.956E-12
2833.200  1.961E-12
2833.400  1.949E-12
2833.600  1.943E-12
2833.800  1.928E-12
2834.000  1.960E-12
2834.200  1.959E-12
2834.400  1.936E-12
2834.600  1.920E-12
2834.800  1.972E-12
2835.000  1.960E-12
2835.200  1.957E-12
2835.400  1.941E-12
2835.600  1.940E-12
2835.800  1.939E-12
2836.000  1.939E-12
2836.200  1.939E-12
2836.400  1.872E-12
2836.600  1.887E-12
2836.800  1.887E-12
2837.000  1.871E-12
2837.200  1.909E-12
2837.400  1.852E-12
2837.600  1.713E-12
2837.800  1.956E-12
2838.000  1.920E-12
2838.200  1.898E-12
2838.400  1.646E-12
2838.600  1.884E-12
2838.800  1.941E-12
2839.000  1.961E-12
2839.200  1.935E-12
2839.400  1.972E-12
2839.600  1.963E-12
2839.800  1.930E-12
2840.000  1.923E-12
2840.200  1.925E-12
2840.400  1.897E-12
2840.600  1.920E-12
2840.800  1.886E-12
2841.000  1.947E-12
2841.200  1.925E-12
2841.400  1.923E-12
2841.600  1.931E-12
2841.800  1.922E-12
2842.000  1.921E-12
2842.200  1.932E-12
2842.400  1.934E-12
2842.600  1.938E-12
2842.800  1.947E-12
2843.000  1.942E-12
2843.200  1.926E-12
2843.400  1.922E-12
2843.600  1.933E-12
2843.800  1.942E-12
2844.000  1.912E-12
2844.200  1.928E-12
2844.400  1.926E-12
2844.600  1.835E-12
2844.800  1.950E-12
2845.000  1.976E-12
2845.200  1.977E-12
2845.400  1.898E-12
2845.600  1.908E-12
2845.800  1.932E-12
2846.000  1.938E-12
2846.200  1.901E-12
2846.400  1.909E-12
2846.600  1.919E-12
2846.800  1.932E-12
2847.000  1.922E-12
2847.200  1.925E-12
2847.400  1.910E-12
2847.600  1.915E-12
2847.800  1.915E-12
2848.000  1.928E-12
2848.200  1.895E-12
2848.400  1.896E-12
2848.600  1.904E-12
2848.800  1.915E-12
2849.000  1.890E-12
2849.200  1.885E-12
2849.400  1.907E-12
2849.600  1.896E-12
2849.800  1.889E-12
2850.000  1.875E-12
2850.200  1.912E-12
2850.400  1.917E-12
2850.600  1.839E-12
2850.800  1.894E-12
2851.000  1.888E-12
2851.200  1.903E-12
2851.400  1.907E-12
2851.600  1.917E-12
2851.800  1.928E-12
2852.000  1.890E-12
2852.200  1.837E-12
2852.400  1.891E-12
2852.600  1.929E-12
2852.800  1.923E-12
2853.000  1.725E-12
2853.200  1.909E-12
2853.400  1.914E-12
2853.600  1.933E-12
2853.800  1.893E-12
2854.000  1.872E-12
2854.200  1.903E-12
2854.400  1.905E-12
2854.600  1.879E-12
2854.800  1.870E-12
2855.000  1.867E-12
2855.200  1.880E-12
2855.400  1.900E-12
2855.600  1.874E-12
2855.800  1.868E-12
2856.000  1.870E-12
2856.200  1.903E-12
2856.400  1.900E-12
2856.600  1.896E-12
2856.800  1.896E-12
2857.000  1.858E-12
2857.200  1.853E-12
2857.400  1.844E-12
2857.600  1.884E-12
2857.800  1.875E-12
2858.000  1.882E-12
2858.200  1.869E-12
2858.400  1.904E-12
2858.600  1.896E-12
2858.800  1.859E-12
2859.000  1.887E-12
2859.200  1.875E-12
2859.400  1.882E-12
2859.600  1.799E-12
2859.800  1.882E-12
2860.000  1.889E-12
2860.200  1.894E-12
2860.400  1.907E-12
2860.600  1.928E-12
2860.800  1.922E-12
2861.000  1.912E-12
2861.200  1.883E-12
2861.400  1.909E-12
2861.600  1.892E-12
2861.800  1.849E-12
2862.000  1.874E-12
2862.200  1.890E-12
2862.400  1.887E-12
2862.600  1.836E-12
2862.800  1.881E-12
2863.000  1.876E-12
2863.200  1.864E-12
2863.400  1.876E-12
2863.600  1.893E-12
2863.800  1.868E-12
2864.000  1.920E-12
2864.200  1.878E-12
2864.400  1.851E-12
2864.600  1.904E-12
2864.800  1.902E-12
2865.000  1.874E-12
2865.200  1.867E-12
2865.400  1.865E-12
2865.600  1.858E-12
2865.800  1.847E-12
2866.000  1.833E-12
2866.200  1.867E-12
2866.400  1.867E-12
2866.600  1.811E-12
2866.800  1.848E-12
2867.000  1.847E-12
2867.200  1.859E-12
2867.400  1.846E-12
2867.600  1.856E-12
2867.800  1.859E-12
2868.000  1.852E-12
2868.200  1.849E-12
2868.400  1.853E-12
2868.600  1.843E-12
2868.800  1.875E-12
2869.000  1.840E-12
2869.200  1.888E-12
2869.400  1.861E-12
2869.600  1.906E-12
2869.800  1.866E-12
2870.000  1.881E-12
2870.200  1.881E-12
2870.400  1.842E-12
2870.600  1.834E-12
2870.800  1.855E-12
2871.000  1.853E-12
2871.200  1.855E-12
2871.400  1.904E-12
2871.600  1.901E-12
2871.800  1.869E-12
2872.000  1.838E-12
2872.200  1.853E-12
2872.400  1.846E-12
2872.600  1.839E-12
2872.800  1.800E-12
2873.000  1.846E-12
2873.200  1.839E-12
2873.400  1.880E-12
2873.600  1.886E-12
2873.800  1.863E-12
2874.000  1.861E-12
2874.200  1.823E-12
2874.400  1.824E-12
2874.600  1.808E-12
2874.800  1.859E-12
2875.000  1.887E-12
2875.200  1.869E-12
2875.400  1.865E-12
2875.600  1.815E-12
2875.800  1.869E-12
2876.000  1.877E-12
2876.200  1.834E-12
2876.400  1.861E-12
2876.600  1.819E-12
2876.800  1.802E-12
2877.000  1.831E-12
2877.200  1.840E-12
2877.400  1.841E-12
2877.600  1.822E-12
2877.800  1.860E-12
2878.000  1.847E-12
2878.200  1.847E-12
2878.400  1.841E-12
2878.600  1.845E-12
2878.800  1.878E-12
2879.000  1.881E-12
2879.200  1.848E-12
2879.400  1.951E-12
2879.600  1.895E-12
2879.800  1.827E-12
2880.000  1.853E-12
2880.200  1.860E-12
2880.400  1.846E-12
2880.600  1.838E-12
2880.800  1.842E-12
2881.000  1.860E-12
2881.200  1.848E-12
2881.400  1.833E-12
2881.600  1.830E-12
2881.800  1.816E-12
2882.000  1.807E-12
2882.200  1.829E-12
2882.400  1.851E-12
2882.600  1.851E-12
2882.800  1.825E-12
2883.000  1.855E-12
2883.200  1.860E-12
2883.400  1.825E-12
2883.600  1.852E-12
2883.800  1.841E-12
2884.000  1.823E-12
2884.200  1.821E-12
2884.400  1.825E-12
2884.600  1.818E-12
2884.800  1.870E-12
2885.000  1.848E-12
2885.200  1.818E-12
2885.400  1.830E-12
2885.600  1.810E-12
2885.800  1.814E-12
2886.000  1.792E-12
2886.200  1.806E-12
2886.400  1.846E-12
2886.600  1.855E-12
2886.800  1.826E-12
2887.000  1.852E-12
2887.200  1.856E-12
2887.400  1.813E-12
2887.600  1.844E-12
2887.800  1.841E-12
2888.000  1.825E-12
2888.200  1.811E-12
2888.400  1.842E-12
2888.600  1.788E-12
2888.800  1.826E-12
2889.000  1.823E-12
2889.200  1.819E-12
2889.400  1.796E-12
2889.600  1.788E-12
2889.800  1.878E-12
2890.000  1.864E-12
2890.200  1.839E-12
2890.400  1.773E-12
2890.600  1.826E-12
2890.800  1.831E-12
2891.000  1.794E-12
2891.200  1.895E-12
2891.400  1.861E-12
2891.600  1.851E-12
2891.800  1.835E-12
2892.000  1.857E-12
2892.200  1.850E-12
2892.400  1.812E-12
2892.600  1.797E-12
2892.800  1.832E-12
2893.000  1.852E-12
2893.200  1.813E-12
2893.400  1.829E-12
2893.600  1.838E-12
2893.800  1.826E-12
2894.000  1.836E-12
2894.200  1.790E-12
2894.400  1.831E-12
2894.600  1.855E-12
2894.800  1.818E-12
2895.000  1.812E-12
2895.200  1.798E-12
2895.400  1.820E-12
2895.600  1.847E-12
2895.800  1.854E-12
2896.000  1.790E-12
2896.200  1.809E-12
2896.400  1.848E-12
2896.600  1.845E-12
2896.800  1.845E-12
2897.000  1.820E-12
2897.200  1.814E-12
2897.400  1.843E-12
2897.600  1.835E-12
2897.800  1.778E-12
2898.000  1.793E-12
2898.200  1.790E-12
2898.400  1.809E-12
2898.600  1.811E-12
2898.800  1.821E-12
2899.000  1.837E-12
2899.200  1.807E-12
2899.400  1.819E-12
2899.600  1.777E-12
2899.800  1.808E-12
2900.000  1.798E-12
2900.200  1.738E-12
2900.400  1.769E-12
2900.600  1.774E-12
2900.800  1.806E-12
2901.000  1.808E-12
2901.200  1.791E-12
2901.400  1.796E-12
2901.600  1.833E-12
2901.800  1.795E-12
2902.000  1.815E-12
2902.200  1.787E-12
2902.400  1.764E-12
2902.600  1.809E-12
2902.800  1.810E-12
2903.000  1.801E-12
2903.200  1.800E-12
2903.400  1.798E-12
2903.600  1.769E-12
2903.800  1.768E-12
2904.000  1.820E-12
2904.200  1.816E-12
2904.400  1.839E-12
2904.600  1.772E-12
2904.800  1.781E-12
2905.000  1.773E-12
2905.200  1.725E-12
2905.400  1.852E-12
2905.600  1.865E-12
2905.800  1.813E-12
2906.000  1.802E-12
2906.200  1.797E-12
2906.400  1.814E-12
2906.600  1.769E-12
2906.800  1.815E-12
2907.000  1.805E-12
2907.200  1.806E-12
2907.400  1.806E-12
2907.600  1.789E-12
2907.800  1.786E-12
2908.000  1.781E-12
2908.200  1.779E-12
2908.400  1.670E-12
2908.600  1.778E-12
2908.800  1.778E-12
2909.000  1.794E-12
2909.200  1.780E-12
2909.400  1.777E-12
2909.600  1.780E-12
2909.800  1.780E-12
2910.000  1.771E-12
2910.200  1.815E-12
2910.400  1.771E-12
2910.600  1.790E-12
2910.800  1.770E-12
2911.000  1.773E-12
2911.200  1.768E-12
2911.400  1.761E-12
2911.600  1.764E-12
2911.800  1.802E-12
2912.000  1.787E-12
2912.200  1.773E-12
2912.400  1.775E-12
2912.600  1.772E-12
2912.800  1.785E-12
2913.000  1.789E-12
2913.200  1.785E-12
2913.400  1.785E-12
2913.600  1.822E-12
2913.800  1.790E-12
2914.000  1.806E-12
2914.200  1.817E-12
2914.400  1.768E-12
2914.600  1.818E-12
2914.800  1.816E-12
2915.000  1.782E-12
2915.200  1.742E-12
2915.400  1.805E-12
2915.600  1.799E-12
2915.800  1.783E-12
2916.000  1.791E-12
2916.200  1.763E-12
2916.400  1.784E-12
2916.600  1.772E-12
2916.800  1.751E-12
2917.000  1.746E-12
2917.200  1.784E-12
2917.400  1.763E-12
2917.600  1.758E-12
2917.800  1.748E-12
2918.000  1.757E-12
2918.200  1.767E-12
2918.400  1.771E-12
2918.600  1.767E-12
2918.800  1.788E-12
2919.000  1.781E-12
2919.200  1.802E-12
2919.400  1.767E-12
2919.600  1.748E-12
2919.800  1.751E-12
2920.000  1.790E-12
2920.200  1.790E-12
2920.400  1.768E-12
2920.600  1.750E-12
2920.800  1.746E-12
2921.000  1.764E-12
2921.200  1.757E-12
2921.400  1.780E-12
2921.600  1.769E-12
2921.800  1.790E-12
2922.000  1.794E-12
2922.200  1.762E-12
2922.400  1.776E-12
2922.600  1.728E-12
2922.800  1.810E-12
2923.000  1.811E-12
2923.200  1.796E-12
2923.400  1.767E-12
2923.600  1.783E-12
2923.800  1.775E-12
2924.000  1.767E-12
2924.200  1.666E-12
2924.400  1.760E-12
2924.600  1.743E-12
2924.800  1.740E-12
2925.000  1.780E-12
2925.200  1.754E-12
2925.400  1.795E-12
2925.600  1.782E-12
2925.800  1.774E-12
2926.000  1.792E-12
2926.200  1.752E-12
2926.400  1.785E-12
2926.600  1.795E-12
2926.800  1.789E-12
2927.000  1.716E-12
2927.200  1.725E-12
2927.400  1.729E-12
2927.600  1.746E-12
2927.800  1.774E-12
2928.000  1.763E-12
2928.200  1.764E-12
2928.400  1.744E-12
2928.600  1.734E-12
2928.800  1.727E-12
2929.000  1.794E-12
2929.200  1.747E-12
2929.400  1.714E-12
2929.600  1.760E-12
2929.800  1.773E-12
2930.000  1.753E-12
2930.200  1.748E-12
2930.400  1.756E-12
2930.600  1.738E-12
2930.800  1.808E-12
2931.000  1.804E-12
2931.200  1.756E-12
2931.400  1.747E-12
2931.600  1.746E-12
2931.800  1.743E-12
2932.000  1.756E-12
2932.200  1.735E-12
2932.400  1.720E-12
2932.600  1.769E-12
2932.800  1.731E-12
2933.000  1.725E-12
2933.200  1.720E-12
2933.400  1.735E-12
2933.600  1.733E-12
2933.800  1.736E-12
2934.000  1.717E-12
2934.200  1.733E-12
2934.400  1.739E-12
2934.600  1.762E-12
2934.800  1.786E-12
2935.000  1.697E-12
2935.200  1.756E-12
2935.400  1.769E-12
2935.600  1.771E-12
2935.800  1.742E-12
2936.000  1.742E-12
2936.200  1.743E-12
2936.400  1.704E-12
2936.600  1.753E-12
2936.800  1.757E-12
2937.000  1.705E-12
2937.200  1.696E-12
2937.400  1.701E-12
2937.600  1.728E-12
2937.800  1.755E-12
2938.000  1.755E-12
2938.200  1.769E-12
2938.400  1.771E-12
2938.600  1.708E-12
2938.800  1.747E-12
2939.000  1.709E-12
2939.200  1.758E-12
2939.400  1.759E-12
2939.600  1.729E-12
2939.800  1.727E-12
2940.000  1.702E-12
2940.200  1.668E-12
2940.400  1.687E-12
2940.600  1.743E-12
2940.800  1.722E-12
2941.000  1.724E-12
2941.200  1.714E-12
2941.400  1.744E-12
2941.600  1.739E-12
2941.800  1.741E-12
2942.000  1.707E-12
2942.200  1.752E-12
2942.400  1.742E-12
2942.600  1.763E-12
2942.800  1.739E-12
2943.000  1.732E-12
2943.200  1.728E-12
2943.400  1.723E-12
2943.600  1.759E-12
2943.800  1.699E-12
2944.000  1.714E-12
2944.200  1.692E-12
2944.400  1.695E-12
2944.600  1.751E-12
2944.800  1.750E-12
2945.000  1.718E-12
2945.200  1.721E-12
2945.400  1.683E-12
2945.600  1.605E-12
2945.800  1.626E-12
2946.000  1.583E-12
2946.200  1.683E-12
2946.400  1.696E-12
2946.600  1.691E-12
2946.800  1.696E-12
2947.000  1.728E-12
2947.200  1.731E-12
2947.400  1.733E-12
2947.600  1.723E-12
2947.800  1.698E-12
2948.000  1.722E-12
2948.200  1.712E-12
2948.400  1.681E-12
2948.600  1.720E-12
2948.800  1.716E-12
2949.000  1.719E-12
2949.200  1.612E-12
2949.400  1.740E-12
2949.600  1.724E-12
2949.800  1.668E-12
2950.000  1.639E-12
2950.200  1.705E-12
2950.400  1.683E-12
2950.600  1.674E-12
2950.800  1.716E-12
2951.000  1.705E-12
2951.200  1.690E-12
2951.400  1.701E-12
2951.600  1.729E-12
2951.800  1.701E-12
2952.000  1.695E-12
2952.200  1.695E-12
2952.400  1.668E-12
2952.600  1.708E-12
2952.800  1.703E-12
2953.000  1.733E-12
2953.200  1.727E-12
2953.400  1.701E-12
2953.600  1.689E-12
2953.800  1.669E-12
2954.000  1.693E-12
2954.200  1.686E-12
2954.400  1.692E-12
2954.600  1.686E-12
2954.800  1.730E-12
2955.000  1.688E-12
2955.200  1.701E-12
2955.400  1.693E-12
2955.600  1.747E-12
2955.800  1.741E-12
2956.000  1.700E-12
2956.200  1.707E-12
2956.400  1.700E-12
2956.600  1.729E-12
2956.800  1.702E-12
2957.000  1.694E-12
2957.200  1.697E-12
2957.400  1.696E-12
2957.600  1.706E-12
2957.800  1.721E-12
2958.000  1.684E-12
2958.200  1.690E-12
2958.400  1.707E-12
2958.600  1.682E-12
2958.800  1.700E-12
2959.000  1.684E-12
2959.200  1.644E-12
2959.400  1.656E-12
2959.600  1.668E-12
2959.800  1.700E-12
2960.000  1.704E-12
2960.200  1.658E-12
2960.400  1.663E-12
2960.600  1.687E-12
2960.800  1.660E-12
2961.000  1.667E-12
2961.200  1.669E-12
2961.400  1.680E-12
2961.600  1.659E-12
2961.800  1.682E-12
2962.000  1.684E-12
2962.200  1.717E-12
2962.400  1.731E-12
2962.600  1.701E-12
2962.800  1.711E-12
2963.000  1.709E-12
2963.200  1.653E-12
2963.400  1.679E-12
2963.600  1.692E-12
2963.800  1.698E-12
2964.000  1.666E-12
2964.200  1.712E-12
2964.400  1.687E-12
2964.600  1.707E-12
2964.800  1.667E-12
2965.000  1.674E-12
2965.200  1.684E-12
2965.400  1.672E-12
2965.600  1.664E-12
2965.800  1.650E-12
2966.000  1.681E-12
2966.200  1.697E-12
2966.400  1.697E-12
2966.600  1.689E-12
2966.800  1.693E-12
2967.000  1.701E-12
2967.200  1.699E-12
2967.400  1.691E-12
2967.600  1.673E-12
2967.800  1.670E-12
2968.000  1.677E-12
2968.200  1.667E-12
2968.400  1.661E-12
2968.600  1.657E-12
2968.800  1.691E-12
2969.000  1.693E-12
2969.200  1.678E-12
2969.400  1.620E-12
2969.600  1.691E-12
2969.800  1.680E-12
2970.000  1.669E-12
2970.200  1.681E-12
2970.400  1.681E-12
2970.600  1.650E-12
2970.800  1.683E-12
2971.000  1.668E-12
2971.200  1.650E-12
2971.400  1.634E-12
2971.600  1.645E-12
2971.800  1.672E-12
2972.000  1.627E-12
2972.200  1.656E-12
2972.400  1.652E-12
2972.600  1.661E-12
2972.800  1.653E-12
2973.000  1.680E-12
2973.200  1.650E-12
2973.400  1.682E-12
2973.600  1.677E-12
2973.800  1.680E-12
2974.000  1.674E-12
2974.200  1.673E-12
2974.400  1.672E-12
2974.600  1.636E-12
2974.800  1.671E-12
2975.000  1.679E-12
2975.200  1.614E-12
2975.400  1.653E-12
2975.600  1.691E-12
2975.800  1.684E-12
2976.000  1.687E-12
2976.200  1.651E-12
2976.400  1.710E-12
2976.600  1.676E-12
2976.800  1.648E-12
2977.000  1.657E-12
2977.200  1.679E-12
2977.400  1.643E-12
2977.600  1.650E-12
2977.800  1.644E-12
2978.000  1.566E-12
2978.200  1.621E-12
2978.400  1.612E-12
2978.600  1.642E-12
2978.800  1.675E-12
2979.000  1.681E-12
2979.200  1.681E-12
2979.400  1.675E-12
2979.600  1.687E-12
2979.800  1.622E-12
2980.000  1.628E-12
2980.200  1.664E-12
2980.400  1.665E-12
2980.600  1.611E-12
2980.800  1.604E-12
2981.000  1.623E-12
2981.200  1.660E-12
2981.400  1.658E-12
2981.600  1.666E-12
2981.800  1.652E-12
2982.000  1.631E-12
2982.200  1.648E-12
2982.400  1.629E-12
2982.600  1.633E-12
2982.800  1.623E-12
2983.000  1.587E-12
2984.000  1.613E-12
2984.200  1.624E-12
2984.400  1.631E-12
2984.600  1.645E-12
2984.800  1.651E-12
2985.000  1.630E-12
2985.200  1.629E-12
2985.400  1.625E-12
2985.600  1.428E-12
2985.800  1.625E-12
2986.000  1.645E-12
2986.200  1.656E-12
2986.400  1.666E-12
2986.600  1.614E-12
2986.800  1.613E-12
2987.000  1.603E-12
2987.200  1.631E-12
2987.400  1.628E-12
2987.600  1.630E-12
2987.800  1.656E-12
2988.000  1.627E-12
2988.200  1.658E-12
2988.400  1.640E-12
2988.600  1.667E-12
2988.800  1.638E-12
2989.000  1.658E-12
2989.200  1.708E-12
2989.400  1.658E-12
2989.600  1.653E-12
2989.800  1.669E-12
2990.000  1.595E-12
2990.200  1.598E-12
2990.400  1.569E-12
2990.600  1.600E-12
2990.800  1.672E-12
2991.000  1.681E-12
2991.200  1.647E-12
2991.400  1.620E-12
2991.600  1.638E-12
2991.800  1.621E-12
2992.000  1.659E-12
2992.200  1.638E-12
2992.400  1.638E-12
2992.600  1.645E-12
2992.800  1.643E-12
2993.000  1.617E-12
2993.200  1.598E-12
2993.400  1.451E-12
2993.600  1.620E-12
2993.800  1.656E-12
2994.000  1.645E-12
2994.200  1.606E-12
2994.400  1.640E-12
2994.600  1.671E-12
2994.800  1.599E-12
2995.000  1.620E-12
2995.200  1.615E-12
2995.400  1.625E-12
2995.600  1.656E-12
2995.800  1.644E-12
2996.000  1.628E-12
2996.200  1.634E-12
2996.400  1.619E-12
2996.600  1.614E-12
2996.800  1.631E-12
2997.000  1.631E-12
2997.200  1.633E-12
2997.400  1.637E-12
2997.600  1.629E-12
2997.800  1.666E-12
2998.000  1.658E-12
2998.200  1.621E-12
2998.400  1.630E-12
2998.600  1.644E-12
2998.800  1.632E-12
2999.000  1.632E-12
2999.200  1.590E-12
2999.400  1.620E-12
2999.600  1.588E-12
2999.800  1.626E-12
3000.000  1.626E-12
3000.200  1.618E-12
3000.400  1.603E-12
3000.600  1.609E-12
3000.800  1.617E-12
3001.000  1.663E-12
3001.200  1.643E-12
3001.400  1.647E-12
3001.600  1.677E-12
3001.800  1.610E-12
3002.000  1.614E-12
3002.200  1.630E-12
3002.400  1.626E-12
3002.600  1.618E-12
3002.800  1.626E-12
3003.000  1.656E-12
3003.200  1.656E-12
3003.400  1.642E-12
3003.600  1.625E-12
3003.800  1.615E-12
3004.000  1.651E-12
3004.200  1.638E-12
3004.400  1.617E-12
3004.600  1.597E-12
3004.800  1.612E-12
3005.000  1.626E-12
3005.200  1.648E-12
3005.400  1.644E-12
3005.600  1.644E-12
3005.800  1.644E-12
3006.000  1.677E-12
3006.200  1.653E-12
3006.400  1.653E-12
3006.600  1.619E-12
3006.800  1.612E-12
3007.000  1.623E-12
3007.200  1.628E-12
3007.400  1.655E-12
3007.600  1.629E-12
3007.800  1.531E-12
3008.000  1.447E-12
3008.200  1.441E-12
3008.400  1.553E-12
3008.600  1.555E-12
3008.800  1.618E-12
3009.000  1.618E-12
3009.200  1.597E-12
3009.400  1.615E-12
3009.600  1.652E-12
3009.800  1.642E-12
3010.000  1.643E-12
3010.200  1.656E-12
3010.400  1.623E-12
3010.600  1.633E-12
3010.800  1.603E-12
3011.000  1.653E-12
3011.200  1.663E-12
3011.400  1.646E-12
3011.600  1.631E-12
3011.800  1.634E-12
3012.000  1.613E-12
3012.200  1.650E-12
3012.400  1.657E-12
3012.600  1.655E-12
3012.800  1.634E-12
3013.000  1.673E-12
3013.200  1.655E-12
3013.400  1.643E-12
3013.600  1.605E-12
3013.800  1.629E-12
3014.000  1.537E-12
3014.200  1.637E-12
3014.400  1.649E-12
3014.600  1.648E-12
3014.800  1.620E-12
3015.000  1.647E-12
3015.200  1.644E-12
3015.400  1.638E-12
3015.600  1.640E-12
3015.800  1.637E-12
3016.000  1.618E-12
3016.200  1.599E-12
3016.400  1.633E-12
3016.600  1.643E-12
3016.800  1.624E-12
3017.000  1.580E-12
3017.200  1.622E-12
3017.400  1.646E-12
3017.600  1.620E-12
3017.800  1.621E-12
3018.000  1.594E-12
3018.200  1.584E-12
3018.400  1.609E-12
3018.600  1.631E-12
3018.800  1.599E-12
3019.000  1.633E-12
3019.200  1.648E-12
3019.400  1.641E-12
3019.600  1.607E-12
3019.800  1.637E-12
3020.000  1.642E-12
3020.200  1.574E-12
3020.400  1.589E-12
3020.600  1.605E-12
3020.800  1.595E-12
3021.000  1.644E-12
3021.200  1.605E-12
3021.400  1.604E-12
3021.600  1.596E-12
3021.800  1.624E-12
3022.000  1.591E-12
3022.200  1.608E-12
3022.400  1.633E-12
3022.600  1.620E-12
3022.800  1.591E-12
3023.000  1.638E-12
3023.200  1.577E-12
3023.400  1.558E-12
3023.600  1.610E-12
3023.800  1.607E-12
3024.000  1.596E-12
3024.200  1.591E-12
3024.400  1.636E-12
3024.600  1.595E-12
3024.800  1.554E-12
3025.000  1.604E-12
3025.200  1.558E-12
3025.400  1.570E-12
3025.600  1.561E-12
3025.800  1.607E-12
3026.000  1.581E-12
3026.200  1.589E-12
3026.400  1.541E-12
3026.600  1.575E-12
3026.800  1.577E-12
3028.400  1.484E-12
3028.600  1.603E-12
3028.800  1.629E-12
3029.000  1.629E-12
3029.200  1.598E-12
3029.400  1.622E-12
3029.600  1.599E-12
3029.800  1.561E-12
3030.000  1.578E-12
3030.200  1.535E-12
3030.400  1.561E-12
3030.600  1.567E-12
3030.800  1.592E-12
3031.000  1.642E-12
3031.200  1.641E-12
3031.400  1.579E-12
3031.600  1.586E-12
3031.800  1.573E-12
3032.000  1.568E-12
3032.200  1.547E-12
3032.400  1.566E-12
3032.600  1.568E-12
3032.800  1.580E-12
3033.000  1.574E-12
3033.200  1.586E-12
3033.400  1.567E-12
3033.600  1.579E-12
3033.800  1.576E-12
3034.000  1.573E-12
3034.200  1.565E-12
3034.400  1.572E-12
3034.600  1.552E-12
3034.800  1.577E-12
3035.000  1.578E-12
3035.200  1.595E-12
3035.400  1.560E-12
3035.600  1.594E-12
3035.800  1.590E-12
3036.000  1.578E-12
3036.200  1.574E-12
3036.400  1.609E-12
3036.600  1.599E-12
3036.800  1.581E-12
3037.000  1.575E-12
3037.200  1.592E-12
3037.400  1.563E-12
3037.600  1.566E-12
3037.800  1.585E-12
3038.000  1.693E-12
3038.200  1.688E-12
3038.400  1.561E-12
3038.600  1.544E-12
3038.800  1.584E-12
3039.000  1.584E-12
3039.200  1.582E-12
3039.400  1.588E-12
3039.600  1.613E-12
3039.800  1.572E-12
3040.000  1.572E-12
3040.200  1.562E-12
3040.400  1.577E-12
3040.600  1.568E-12
3040.800  1.561E-12
3041.000  1.596E-12
3041.200  1.612E-12
3041.400  1.590E-12
3041.600  1.594E-12
3041.800  1.550E-12
3042.000  1.616E-12
3042.200  1.626E-12
3042.400  1.560E-12
3042.600  1.556E-12
3042.800  1.566E-12
3043.000  1.563E-12
3043.200  1.545E-12
3043.400  1.580E-12
3043.600  1.583E-12
3043.800  1.595E-12
3044.000  1.597E-12
3044.200  1.600E-12
3044.400  1.540E-12
3044.600  1.550E-12
3044.800  1.588E-12
3045.000  1.576E-12
3045.200  1.586E-12
3045.400  1.589E-12
3045.600  1.599E-12
3045.800  1.590E-12
3046.000  1.592E-12
3046.200  1.565E-12
3046.400  1.581E-12
3046.600  1.601E-12
3046.800  1.577E-12
3047.000  1.561E-12
3047.200  1.562E-12
3047.400  1.559E-12
3047.600  1.590E-12
3047.800  1.605E-12
3048.000  1.579E-12
3048.200  1.576E-12
3048.400  1.586E-12
3048.600  1.582E-12
3048.800  1.571E-12
3049.000  1.549E-12
3049.200  1.592E-12
3049.400  1.581E-12
3049.600  1.530E-12
3049.800  1.539E-12
3050.000  1.608E-12
3050.200  1.570E-12
3050.400  1.560E-12
3050.600  1.545E-12
3050.800  1.565E-12
3051.000  1.564E-12
3051.200  1.590E-12
3051.400  1.584E-12
3051.600  1.557E-12
3051.800  1.567E-12
3052.000  1.553E-12
3052.200  1.562E-12
3052.400  1.571E-12
3052.600  1.578E-12
3052.800  1.566E-12
3053.000  1.581E-12
3053.200  1.614E-12
3053.400  1.620E-12
3053.600  1.560E-12
3053.800  1.559E-12
3054.000  1.537E-12
3054.200  1.520E-12
3054.400  1.571E-12
3054.600  1.618E-12
3054.800  1.591E-12
3055.000  1.521E-12
3055.200  1.540E-12
3055.400  1.541E-12
3055.600  1.591E-12
3055.800  1.589E-12
3056.000  1.557E-12
3056.200  1.604E-12
3056.400  1.571E-12
3056.600  1.602E-12
3056.800  1.592E-12
3057.000  1.569E-12
3057.200  1.547E-12
3057.400  1.602E-12
3057.600  1.589E-12
3057.800  1.553E-12
3058.000  1.525E-12
3058.200  1.539E-12
3058.400  1.532E-12
3058.600  1.538E-12
3058.800  1.533E-12
3059.000  1.527E-12
3059.200  1.525E-12
3059.400  1.562E-12
3059.600  1.572E-12
3059.800  1.512E-12
3060.000  1.521E-12
3060.200  1.540E-12
3060.400  1.505E-12
3060.600  1.569E-12
3060.800  1.587E-12
3061.000  1.558E-12
3061.200  1.553E-12
3061.400  1.614E-12
3061.600  1.617E-12
3061.800  1.492E-12
3062.000  1.532E-12
3062.200  1.582E-12
3062.400  1.587E-12
3062.600  1.564E-12
3062.800  1.585E-12
3063.000  1.569E-12
3063.200  1.576E-12
3063.400  1.603E-12
3063.600  1.579E-12
3063.800  1.565E-12
3064.000  1.543E-12
3064.200  1.546E-12
3064.400  1.554E-12
3064.600  1.593E-12
3064.800  1.613E-12
3065.000  1.551E-12
3065.200  1.557E-12
3065.400  1.561E-12
3065.600  1.600E-12
3065.800  1.587E-12
3066.000  1.584E-12
3066.200  1.623E-12
3066.400  1.560E-12
3066.600  1.603E-12
3066.800  1.636E-12
3067.000  1.599E-12
3067.200  1.594E-12
3067.400  1.562E-12
3067.600  1.606E-12
3067.800  1.648E-12
3068.000  1.661E-12
3068.200  1.584E-12
3068.400  1.593E-12
3068.600  1.622E-12
3068.800  1.619E-12
3069.000  1.610E-12
3069.200  1.595E-12
3069.400  1.562E-12
3069.600  1.569E-12
3069.800  1.590E-12
3070.000  1.627E-12
3070.200  1.589E-12
3070.400  1.594E-12
3070.600  1.538E-12
3070.800  1.581E-12
3071.000  1.556E-12
3071.200  1.536E-12
3071.400  1.560E-12
3071.600  1.594E-12
3071.800  1.502E-12
3072.000  1.466E-12